submission_id,QUD,RT,age,answer,botresponse,causes_id1,causes_id2,comments,education,endTime,expected,experiment_id,gender,group,id,id1,id2,languages,picture1,picture2,prolific_id,question,question_long,response,selected_pic,startDate,startTime,timeSpent,trial_name,trial_number,type
2254,Use the buttons below to select all the blocks that you think will fall.<br/>(Multiple selections possible!),39965,40,NA,linda,NA,NA,"ifound this research tested how I think. it was slightly challenging my concentration, but i found it okay.  I would definitely like to do it again.",Graduated High School,1632386255931,green,67,male,NA,independent_edge_nh,NA,NA,english,NA,NA,C3B7F3C7,,NA,green,NA,Thu Sep 23 2021 09:13:14 GMT+0100 (British Summer Time),1632384794013,24.3653,animation_buttons,1,training
2254,Use the buttons below to select all the blocks that you think will fall.<br/>(Multiple selections possible!),24808,40,NA,linda,NA,NA,"ifound this research tested how I think. it was slightly challenging my concentration, but i found it okay.  I would definitely like to do it again.",Graduated High School,1632386255931,none,67,male,NA,if2_nnl,NA,NA,english,NA,NA,C3B7F3C7,,NA,none,NA,Thu Sep 23 2021 09:13:14 GMT+0100 (British Summer Time),1632384794013,24.3653,animation_buttons,2,training
2254,Use the buttons below to select all the blocks that you think will fall.<br/>(Multiple selections possible!),21791,40,NA,linda,NA,NA,"ifound this research tested how I think. it was slightly challenging my concentration, but i found it okay.  I would definitely like to do it again.",Graduated High School,1632386255931,blue|green|yellow,67,male,NA,if2_hnh,NA,NA,english,NA,NA,C3B7F3C7,,NA,yellow,NA,Thu Sep 23 2021 09:13:14 GMT+0100 (British Summer Time),1632384794013,24.3653,animation_buttons,3,training
2254,Use the buttons below to select all the blocks that you think will fall.<br/>(Multiple selections possible!),9103,40,NA,linda,NA,NA,"ifound this research tested how I think. it was slightly challenging my concentration, but i found it okay.  I would definitely like to do it again.",Graduated High School,1632386255931,none,67,male,NA,if1_nn,NA,NA,english,NA,NA,C3B7F3C7,,NA,none,NA,Thu Sep 23 2021 09:13:14 GMT+0100 (British Summer Time),1632384794013,24.3653,animation_buttons,4,training
2254,Use the buttons below to select all the blocks that you think will fall.<br/>(Multiple selections possible!),25092,40,NA,linda,NA,NA,"ifound this research tested how I think. it was slightly challenging my concentration, but i found it okay.  I would definitely like to do it again.",Graduated High School,1632386255931,blue|yellow,67,male,NA,if2_nnh,NA,NA,english,NA,NA,C3B7F3C7,,NA,blue|yellow,NA,Thu Sep 23 2021 09:13:14 GMT+0100 (British Summer Time),1632384794013,24.3653,animation_buttons,5,training
2254,Use the buttons below to select all the blocks that you think will fall.<br/>(Multiple selections possible!),14500,40,NA,linda,NA,NA,"ifound this research tested how I think. it was slightly challenging my concentration, but i found it okay.  I would definitely like to do it again.",Graduated High School,1632386255931,none,67,male,NA,if1_ln,NA,NA,english,NA,NA,C3B7F3C7,,NA,none,NA,Thu Sep 23 2021 09:13:14 GMT+0100 (British Summer Time),1632384794013,24.3653,animation_buttons,6,training
2254,Use the buttons below to select all the blocks that you think will fall.<br/>(Multiple selections possible!),15909,40,NA,linda,NA,NA,"ifound this research tested how I think. it was slightly challenging my concentration, but i found it okay.  I would definitely like to do it again.",Graduated High School,1632386255931,blue|green,67,male,NA,if1_hn,NA,NA,english,NA,NA,C3B7F3C7,,NA,green,NA,Thu Sep 23 2021 09:13:14 GMT+0100 (British Summer Time),1632384794013,24.3653,animation_buttons,7,training
2254,"EXAMPLE TRIAL<br/><br/>Based on the following dialogue between Ann and Bob, which of the two scenes is more likely to be the one that Bob is describing?<br/><br/>Please select by clicking on the respective picture.<hr>",17213,40,<b>Bob</b>: The YELLOW block will fall.,linda,,,"ifound this research tested how I think. it was slightly challenging my concentration, but i found it okay.  I would definitely like to do it again.",Graduated High School,1632386255931,picture1,67,male,example,example-test-trials,example_test_trials1,example_test_trials2,english,stimuli/img/example_test_trials1.png,stimuli/img/example_test_trials2.png,C3B7F3C7,neutral,<b>Ann</b>: Which blocks do you think will fall?,,picture1,Thu Sep 23 2021 09:13:14 GMT+0100 (British Summer Time),1632384794013,24.3653,image_selection,1,test-example
2254,"Based on the following dialogue between Ann and Bob, which of the two scenes is more likely to be the one that Bob is describing?<br/><br/>Please select by clicking on the respective picture.<hr>",21784,40,<b>Bob</b>: NEITHER the ANT NOR the CONS block will fall.,linda,,,"ifound this research tested how I think. it was slightly challenging my concentration, but i found it okay.  I would definitely like to do it again.",Graduated High School,1632386255931,picture1,67,male,group1,trial7,if1_nn,if2_nnh,english,stimuli/img/group1/if1_nn.png,stimuli/img/group1/if2_nnh.png,C3B7F3C7,neutral,<b>Ann</b>: Which blocks do you think will fall?,,picture1,Thu Sep 23 2021 09:13:14 GMT+0100 (British Summer Time),1632384794013,24.3653,image_selection,1,control-physics
2254,"Based on the following dialogue between Ann and Bob, which of the two scenes is more likely to be the one that Bob is describing?<br/><br/>Please select by clicking on the respective picture.<hr>",17864,40,"<b>Bob</b>: If the ANT block falls, the CONS block will fall.",linda,exhaustive,non-exhaustive,"ifound this research tested how I think. it was slightly challenging my concentration, but i found it okay.  I would definitely like to do it again.",Graduated High School,1632386255931,none,67,male,group2,trial15,if2_unn,if2_unu,english,stimuli/img/group2/if2_unn.png,stimuli/img/group2/if2_unu.png,C3B7F3C7,neutral,<b>Ann</b>: Which blocks do you think will fall?,non-exhaustive,picture2,Thu Sep 23 2021 09:13:14 GMT+0100 (British Summer Time),1632384794013,24.3653,image_selection,2,critical
2254,"Based on the following dialogue between Ann and Bob, which of the two scenes is more likely to be the one that Bob is describing?<br/><br/>Please select by clicking on the respective picture.<hr>",16880,40,<b>Bob</b>: NEITHER the YELLOW NOR the CONS block will fall.,linda,,,"ifound this research tested how I think. it was slightly challenging my concentration, but i found it okay.  I would definitely like to do it again.",Graduated High School,1632386255931,picture1,67,male,group1,trial9,if2_nnn,if2_nnh,english,stimuli/img/group1/if2_nnn.png,stimuli/img/group1/if2_nnh.png,C3B7F3C7,if_ant_yellow,<b>Ann</b>: What happens if the YELLOW block falls?,,picture1,Thu Sep 23 2021 09:13:14 GMT+0100 (British Summer Time),1632384794013,24.3653,image_selection,3,control-physics
2254,"Based on the following dialogue between Ann and Bob, which of the two scenes is more likely to be the one that Bob is describing?<br/><br/>Please select by clicking on the respective picture.<hr>",16848,40,"<b>Bob</b>: If the ANT block falls, the CONS block will fall.",linda,exhaustive,non-exhaustive,"ifound this research tested how I think. it was slightly challenging my concentration, but i found it okay.  I would definitely like to do it again.",Graduated High School,1632386255931,none,67,male,group2,trial1,if1_un,if2_unu,english,stimuli/img/group2/if1_un.png,stimuli/img/group2/if2_unu.png,C3B7F3C7,if_ant,<b>Ann</b>: What happens if the ANT block falls?,exhaustive,picture1,Thu Sep 23 2021 09:13:14 GMT+0100 (British Summer Time),1632384794013,24.3653,image_selection,4,critical
2254,"Based on the following dialogue between Ann and Bob, which of the two scenes is more likely to be the one that Bob is describing?<br/><br/>Please select by clicking on the respective picture.<hr>",10527,40,<b>Bob</b>: The CONS and the ANT block will fall.,linda,,,"ifound this research tested how I think. it was slightly challenging my concentration, but i found it okay.  I would definitely like to do it again.",Graduated High School,1632386255931,picture2,67,male,group2,trial8,if1_nn,if1_hn,english,stimuli/img/group2/if1_nn.png,stimuli/img/group2/if1_hn.png,C3B7F3C7,cons,<b>Ann</b>: Will the CONS block fall?,,picture2,Thu Sep 23 2021 09:13:14 GMT+0100 (British Summer Time),1632384794013,24.3653,image_selection,5,control-physics
2254,"Based on the following dialogue between Ann and Bob, which of the two scenes is more likely to be the one that Bob is describing?<br/><br/>Please select by clicking on the respective picture.<hr>",25832,40,"<b>Bob</b>: If the ANT block falls, the CONS block will fall.",linda,exhaustive,non-exhaustive,"ifound this research tested how I think. it was slightly challenging my concentration, but i found it okay.  I would definitely like to do it again.",Graduated High School,1632386255931,picture1,67,male,group2,trial17,if1_un,if1_uu,english,stimuli/img/group2/if1_un.png,stimuli/img/group2/if1_uu.png,C3B7F3C7,cons,<b>Ann</b>: Will the CONS block fall?,exhaustive,picture1,Thu Sep 23 2021 09:13:14 GMT+0100 (British Summer Time),1632384794013,24.3653,image_selection,6,critical
2254,"Based on the following dialogue between Ann and Bob, which of the two scenes is more likely to be the one that Bob is describing?<br/><br/>Please select by clicking on the respective picture.<hr>",213106,40,<b>Bob</b>: NEITHER the ANT NOR the CONS block will fall.,linda,,,"ifound this research tested how I think. it was slightly challenging my concentration, but i found it okay.  I would definitely like to do it again.",Graduated High School,1632386255931,picture2,67,male,group1,trial12,if1_hn,if1_nn,english,stimuli/img/group1/if1_hn.png,stimuli/img/group1/if1_nn.png,C3B7F3C7,cons,<b>Ann</b>: Will the CONS block fall?,,picture2,Thu Sep 23 2021 09:13:14 GMT+0100 (British Summer Time),1632384794013,24.3653,image_selection,7,control-random
2254,"Based on the following dialogue between Ann and Bob, which of the two scenes is more likely to be the one that Bob is describing?<br/><br/>Please select by clicking on the respective picture.<hr>",28312,40,"<b>Bob</b>: If the ANT block falls, the CONS block will fall.",linda,exhaustive,non-exhaustive,"ifound this research tested how I think. it was slightly challenging my concentration, but i found it okay.  I would definitely like to do it again.",Graduated High School,1632386255931,none,67,male,group2,trial3,if1_un,if2_unu,english,stimuli/img/group2/if1_un.png,stimuli/img/group2/if2_unu.png,C3B7F3C7,neutral,<b>Ann</b>: Which blocks do you think will fall?,non-exhaustive,picture2,Thu Sep 23 2021 09:13:14 GMT+0100 (British Summer Time),1632384794013,24.3653,image_selection,8,critical
2254,"Based on the following dialogue between Ann and Bob, which of the two scenes is more likely to be the one that Bob is describing?<br/><br/>Please select by clicking on the respective picture.<hr>",395507,40,<b>Bob</b>: The CONS block will fall.,linda,,,"ifound this research tested how I think. it was slightly challenging my concentration, but i found it okay.  I would definitely like to do it again.",Graduated High School,1632386255931,picture1,67,male,group2,trial11,independent_edge_nh,independent_edge_nn,english,stimuli/img/group2/independent_edge_nh.png,stimuli/img/group2/independent_edge_nn.png,C3B7F3C7,neutral,<b>Ann</b>: Which blocks do you think will fall?,,picture1,Thu Sep 23 2021 09:13:14 GMT+0100 (British Summer Time),1632384794013,24.3653,image_selection,9,control-random
2254,"Based on the following dialogue between Ann and Bob, which of the two scenes is more likely to be the one that Bob is describing?<br/><br/>Please select by clicking on the respective picture.<hr>",28936,40,"<b>Bob</b>: If the ANT block falls, the CONS block will fall.",linda,exhaustive,non-exhaustive,"ifound this research tested how I think. it was slightly challenging my concentration, but i found it okay.  I would definitely like to do it again.",Graduated High School,1632386255931,none,67,male,group2,trial13,if2_unn,if2_unu,english,stimuli/img/group2/if2_unn.png,stimuli/img/group2/if2_unu.png,C3B7F3C7,if_ant,<b>Ann</b>: What happens if the ANT block falls?,non-exhaustive,picture2,Thu Sep 23 2021 09:13:14 GMT+0100 (British Summer Time),1632384794013,24.3653,image_selection,10,critical
2254,"Based on the following dialogue between Ann and Bob, which of the two scenes is more likely to be the one that Bob is describing?<br/><br/>Please select by clicking on the respective picture.<hr>",30496,40,<b>Bob</b>: The CONS block will NOT fall.,linda,,,"ifound this research tested how I think. it was slightly challenging my concentration, but i found it okay.  I would definitely like to do it again.",Graduated High School,1632386255931,picture2,67,male,group2,trial10,independent_edge_nh,independent_edge_nn,english,stimuli/img/group2/independent_edge_nh.png,stimuli/img/group2/independent_edge_nn.png,C3B7F3C7,if_cons,<b>Ann</b>: What happens if the CONS block falls?,,picture2,Thu Sep 23 2021 09:13:14 GMT+0100 (British Summer Time),1632384794013,24.3653,image_selection,11,control-random
2254,"Based on the following dialogue between Ann and Bob, which of the two scenes is more likely to be the one that Bob is describing?<br/><br/>Please select by clicking on the respective picture.<hr>",43944,40,"<b>Bob</b>: If the ANT block falls, the CONS block will fall.",linda,exhaustive,non-exhaustive,"ifound this research tested how I think. it was slightly challenging my concentration, but i found it okay.  I would definitely like to do it again.",Graduated High School,1632386255931,picture1,67,male,group2,trial14,if2_unn,if2_unu,english,stimuli/img/group2/if2_unn.png,stimuli/img/group2/if2_unu.png,C3B7F3C7,cons,<b>Ann</b>: Will the CONS block fall?,non-exhaustive,picture2,Thu Sep 23 2021 09:13:14 GMT+0100 (British Summer Time),1632384794013,24.3653,image_selection,12,critical
2254,"Based on the following dialogue between Ann and Bob, which of the two scenes is more likely to be the one that Bob is describing?<br/><br/>Please select by clicking on the respective picture.<hr>",51128,40,"<b>Bob</b>: If the ANT block falls, the CONS block will fall.",linda,exhaustive,non-exhaustive,"ifound this research tested how I think. it was slightly challenging my concentration, but i found it okay.  I would definitely like to do it again.",Graduated High School,1632386255931,none,67,male,group1,trial6,if2_unn,if1_uu,english,stimuli/img/group1/if2_unn.png,stimuli/img/group1/if1_uu.png,C3B7F3C7,neutral,<b>Ann</b>: Which blocks do you think will fall?,exhaustive,picture1,Thu Sep 23 2021 09:13:14 GMT+0100 (British Summer Time),1632384794013,24.3653,image_selection,13,critical
2254,"Based on the following dialogue between Ann and Bob, which of the two scenes is more likely to be the one that Bob is describing?<br/><br/>Please select by clicking on the respective picture.<hr>",7288,40,"<b>Bob</b>: If the ANT block falls, the CONS block will fall.",linda,exhaustive,non-exhaustive,"ifound this research tested how I think. it was slightly challenging my concentration, but i found it okay.  I would definitely like to do it again.",Graduated High School,1632386255931,none,67,male,group1,trial4,if2_unn,if1_uu,english,stimuli/img/group1/if2_unn.png,stimuli/img/group1/if1_uu.png,C3B7F3C7,if_ant,<b>Ann</b>: What happens if the ANT block falls?,non-exhaustive,picture2,Thu Sep 23 2021 09:13:14 GMT+0100 (British Summer Time),1632384794013,24.3653,image_selection,14,critical
2254,"Based on the following dialogue between Ann and Bob, which of the two scenes is more likely to be the one that Bob is describing?<br/><br/>Please select by clicking on the respective picture.<hr>",10088,40,"<b>Bob</b>: If the ANT block falls, the CONS block will fall.",linda,exhaustive,non-exhaustive,"ifound this research tested how I think. it was slightly challenging my concentration, but i found it okay.  I would definitely like to do it again.",Graduated High School,1632386255931,picture1,67,male,group2,trial5,if2_unn,if1_uu,english,stimuli/img/group2/if2_unn.png,stimuli/img/group2/if1_uu.png,C3B7F3C7,cons,<b>Ann</b>: Will the CONS block fall?,non-exhaustive,picture2,Thu Sep 23 2021 09:13:14 GMT+0100 (British Summer Time),1632384794013,24.3653,image_selection,15,critical
2254,"Based on the following dialogue between Ann and Bob, which of the two scenes is more likely to be the one that Bob is describing?<br/><br/>Please select by clicking on the respective picture.<hr>",30303,40,"<b>Bob</b>: If the ANT block falls, the CONS block will fall.",linda,exhaustive,non-exhaustive,"ifound this research tested how I think. it was slightly challenging my concentration, but i found it okay.  I would definitely like to do it again.",Graduated High School,1632386255931,none,67,male,group2,trial16,if1_un,if1_uu,english,stimuli/img/group2/if1_un.png,stimuli/img/group2/if1_uu.png,C3B7F3C7,if_ant,<b>Ann</b>: What happens if the ANT block falls?,exhaustive,picture1,Thu Sep 23 2021 09:13:14 GMT+0100 (British Summer Time),1632384794013,24.3653,image_selection,16,critical
2254,"Based on the following dialogue between Ann and Bob, which of the two scenes is more likely to be the one that Bob is describing?<br/><br/>Please select by clicking on the respective picture.<hr>",11975,40,"<b>Bob</b>: If the ANT block falls, the CONS block will fall.",linda,exhaustive,non-exhaustive,"ifound this research tested how I think. it was slightly challenging my concentration, but i found it okay.  I would definitely like to do it again.",Graduated High School,1632386255931,none,67,male,group1,trial18,if1_un,if1_uu,english,stimuli/img/group1/if1_un.png,stimuli/img/group1/if1_uu.png,C3B7F3C7,neutral,<b>Ann</b>: Which blocks do you think will fall?,exhaustive,picture1,Thu Sep 23 2021 09:13:14 GMT+0100 (British Summer Time),1632384794013,24.3653,image_selection,17,critical
2254,"Based on the following dialogue between Ann and Bob, which of the two scenes is more likely to be the one that Bob is describing?<br/><br/>Please select by clicking on the respective picture.<hr>",26112,40,"<b>Bob</b>: If the ANT block falls, the CONS block will fall.",linda,exhaustive,non-exhaustive,"ifound this research tested how I think. it was slightly challenging my concentration, but i found it okay.  I would definitely like to do it again.",Graduated High School,1632386255931,picture1,67,male,group1,trial2,if1_un,if2_unu,english,stimuli/img/group1/if1_un.png,stimuli/img/group1/if2_unu.png,C3B7F3C7,cons,<b>Ann</b>: Will the CONS block fall?,non-exhaustive,picture2,Thu Sep 23 2021 09:13:14 GMT+0100 (British Summer Time),1632384794013,24.3653,image_selection,18,critical
2253,Use the buttons below to select all the blocks that you think will fall.<br/>(Multiple selections possible!),20205,24,NA,jessica,NA,NA,,Graduated College,1632385659979,blue|green|yellow,67,female,NA,if2_hnh,NA,NA,English ,NA,NA,614af4e91d055f95ee624545,,NA,blue|yellow,NA,Thu Sep 23 2021 09:16:46 GMT+0100 (British Summer Time),1632385006688,10.888183333333334,animation_buttons,1,training
2253,Use the buttons below to select all the blocks that you think will fall.<br/>(Multiple selections possible!),12966,24,NA,jessica,NA,NA,,Graduated College,1632385659979,none,67,female,NA,if1_ln,NA,NA,English ,NA,NA,614af4e91d055f95ee624545,,NA,blue|green,NA,Thu Sep 23 2021 09:16:46 GMT+0100 (British Summer Time),1632385006688,10.888183333333334,animation_buttons,2,training
2253,Use the buttons below to select all the blocks that you think will fall.<br/>(Multiple selections possible!),14524,24,NA,jessica,NA,NA,,Graduated College,1632385659979,green|yellow,67,female,NA,if2_nnh,NA,NA,English ,NA,NA,614af4e91d055f95ee624545,,NA,green|yellow,NA,Thu Sep 23 2021 09:16:46 GMT+0100 (British Summer Time),1632385006688,10.888183333333334,animation_buttons,3,training
2253,Use the buttons below to select all the blocks that you think will fall.<br/>(Multiple selections possible!),6678,24,NA,jessica,NA,NA,,Graduated College,1632385659979,none,67,female,NA,if1_nn,NA,NA,English ,NA,NA,614af4e91d055f95ee624545,,NA,none,NA,Thu Sep 23 2021 09:16:46 GMT+0100 (British Summer Time),1632385006688,10.888183333333334,animation_buttons,4,training
2253,Use the buttons below to select all the blocks that you think will fall.<br/>(Multiple selections possible!),9831,24,NA,jessica,NA,NA,,Graduated College,1632385659979,blue|green,67,female,NA,if1_hn,NA,NA,English ,NA,NA,614af4e91d055f95ee624545,,NA,blue|green,NA,Thu Sep 23 2021 09:16:46 GMT+0100 (British Summer Time),1632385006688,10.888183333333334,animation_buttons,5,training
2253,Use the buttons below to select all the blocks that you think will fall.<br/>(Multiple selections possible!),16215,24,NA,jessica,NA,NA,,Graduated College,1632385659979,none,67,female,NA,if2_nnl,NA,NA,English ,NA,NA,614af4e91d055f95ee624545,,NA,blue|yellow,NA,Thu Sep 23 2021 09:16:46 GMT+0100 (British Summer Time),1632385006688,10.888183333333334,animation_buttons,6,training
2253,Use the buttons below to select all the blocks that you think will fall.<br/>(Multiple selections possible!),4519,24,NA,jessica,NA,NA,,Graduated College,1632385659979,green,67,female,NA,independent_edge_nh,NA,NA,English ,NA,NA,614af4e91d055f95ee624545,,NA,green,NA,Thu Sep 23 2021 09:16:46 GMT+0100 (British Summer Time),1632385006688,10.888183333333334,animation_buttons,7,training
2253,"EXAMPLE TRIAL<br/><br/>Based on the following dialogue between Ann and Bob, which of the two scenes is more likely to be the one that Bob is describing?<br/><br/>Please select by clicking on the respective picture.<hr>",14455,24,<b>Bob</b>: The YELLOW block will fall.,jessica,,,,Graduated College,1632385659979,picture1,67,female,example,example-test-trials,example_test_trials1,example_test_trials2,English ,stimuli/img/example_test_trials1.png,stimuli/img/example_test_trials2.png,614af4e91d055f95ee624545,neutral,<b>Ann</b>: Which blocks do you think will fall?,,picture1,Thu Sep 23 2021 09:16:46 GMT+0100 (British Summer Time),1632385006688,10.888183333333334,image_selection,1,test-example
2253,"Based on the following dialogue between Ann and Bob, which of the two scenes is more likely to be the one that Bob is describing?<br/><br/>Please select by clicking on the respective picture.<hr>",11359,24,<b>Bob</b>: NEITHER the ANT NOR the CONS block will fall.,jessica,,,,Graduated College,1632385659979,picture1,67,female,group2,trial7,if1_nn,if2_nnh,English ,stimuli/img/group2/if1_nn.png,stimuli/img/group2/if2_nnh.png,614af4e91d055f95ee624545,neutral,<b>Ann</b>: Which blocks do you think will fall?,,picture2,Thu Sep 23 2021 09:16:46 GMT+0100 (British Summer Time),1632385006688,10.888183333333334,image_selection,1,control-physics
2253,"Based on the following dialogue between Ann and Bob, which of the two scenes is more likely to be the one that Bob is describing?<br/><br/>Please select by clicking on the respective picture.<hr>",206754,24,"<b>Bob</b>: If the ANT block falls, the CONS block will fall.",jessica,exhaustive,non-exhaustive,,Graduated College,1632385659979,none,67,female,group2,trial6,if2_unn,if1_uu,English ,stimuli/img/group2/if2_unn.png,stimuli/img/group2/if1_uu.png,614af4e91d055f95ee624545,neutral,<b>Ann</b>: Which blocks do you think will fall?,non-exhaustive,picture2,Thu Sep 23 2021 09:16:46 GMT+0100 (British Summer Time),1632385006688,10.888183333333334,image_selection,2,critical
2253,"Based on the following dialogue between Ann and Bob, which of the two scenes is more likely to be the one that Bob is describing?<br/><br/>Please select by clicking on the respective picture.<hr>",23568,24,<b>Bob</b>: The CONS and the ANT block will fall.,jessica,,,,Graduated College,1632385659979,picture2,67,female,group2,trial8,if1_nn,if1_hn,English ,stimuli/img/group2/if1_nn.png,stimuli/img/group2/if1_hn.png,614af4e91d055f95ee624545,cons,<b>Ann</b>: Will the CONS block fall?,,picture2,Thu Sep 23 2021 09:16:46 GMT+0100 (British Summer Time),1632385006688,10.888183333333334,image_selection,3,control-physics
2253,"Based on the following dialogue between Ann and Bob, which of the two scenes is more likely to be the one that Bob is describing?<br/><br/>Please select by clicking on the respective picture.<hr>",9039,24,"<b>Bob</b>: If the ANT block falls, the CONS block will fall.",jessica,exhaustive,non-exhaustive,,Graduated College,1632385659979,none,67,female,group1,trial4,if2_unn,if1_uu,English ,stimuli/img/group1/if2_unn.png,stimuli/img/group1/if1_uu.png,614af4e91d055f95ee624545,if_ant,<b>Ann</b>: What happens if the ANT block falls?,non-exhaustive,picture2,Thu Sep 23 2021 09:16:46 GMT+0100 (British Summer Time),1632385006688,10.888183333333334,image_selection,4,critical
2253,"Based on the following dialogue between Ann and Bob, which of the two scenes is more likely to be the one that Bob is describing?<br/><br/>Please select by clicking on the respective picture.<hr>",14407,24,<b>Bob</b>: NEITHER the YELLOW NOR the CONS block will fall.,jessica,,,,Graduated College,1632385659979,picture1,67,female,group2,trial9,if2_nnn,if2_nnh,English ,stimuli/img/group2/if2_nnn.png,stimuli/img/group2/if2_nnh.png,614af4e91d055f95ee624545,if_ant_yellow,<b>Ann</b>: What happens if the YELLOW block falls?,,picture1,Thu Sep 23 2021 09:16:46 GMT+0100 (British Summer Time),1632385006688,10.888183333333334,image_selection,5,control-physics
2253,"Based on the following dialogue between Ann and Bob, which of the two scenes is more likely to be the one that Bob is describing?<br/><br/>Please select by clicking on the respective picture.<hr>",8240,24,"<b>Bob</b>: If the ANT block falls, the CONS block will fall.",jessica,exhaustive,non-exhaustive,,Graduated College,1632385659979,none,67,female,group2,trial16,if1_un,if1_uu,English ,stimuli/img/group2/if1_un.png,stimuli/img/group2/if1_uu.png,614af4e91d055f95ee624545,if_ant,<b>Ann</b>: What happens if the ANT block falls?,non-exhaustive,picture2,Thu Sep 23 2021 09:16:46 GMT+0100 (British Summer Time),1632385006688,10.888183333333334,image_selection,6,critical
2253,"Based on the following dialogue between Ann and Bob, which of the two scenes is more likely to be the one that Bob is describing?<br/><br/>Please select by clicking on the respective picture.<hr>",15720,24,<b>Bob</b>: The CONS block will fall.,jessica,,,,Graduated College,1632385659979,picture1,67,female,group1,trial11,independent_edge_nh,independent_edge_nn,English ,stimuli/img/group1/independent_edge_nh.png,stimuli/img/group1/independent_edge_nn.png,614af4e91d055f95ee624545,neutral,<b>Ann</b>: Which blocks do you think will fall?,,picture1,Thu Sep 23 2021 09:16:46 GMT+0100 (British Summer Time),1632385006688,10.888183333333334,image_selection,7,control-random
2253,"Based on the following dialogue between Ann and Bob, which of the two scenes is more likely to be the one that Bob is describing?<br/><br/>Please select by clicking on the respective picture.<hr>",19576,24,"<b>Bob</b>: If the ANT block falls, the CONS block will fall.",jessica,exhaustive,non-exhaustive,,Graduated College,1632385659979,none,67,female,group2,trial15,if2_unn,if2_unu,English ,stimuli/img/group2/if2_unn.png,stimuli/img/group2/if2_unu.png,614af4e91d055f95ee624545,neutral,<b>Ann</b>: Which blocks do you think will fall?,exhaustive,picture1,Thu Sep 23 2021 09:16:46 GMT+0100 (British Summer Time),1632385006688,10.888183333333334,image_selection,8,critical
2253,"Based on the following dialogue between Ann and Bob, which of the two scenes is more likely to be the one that Bob is describing?<br/><br/>Please select by clicking on the respective picture.<hr>",4681,24,<b>Bob</b>: The CONS block will NOT fall.,jessica,,,,Graduated College,1632385659979,picture2,67,female,group2,trial10,independent_edge_nh,independent_edge_nn,English ,stimuli/img/group2/independent_edge_nh.png,stimuli/img/group2/independent_edge_nn.png,614af4e91d055f95ee624545,if_cons,<b>Ann</b>: What happens if the CONS block falls?,,picture2,Thu Sep 23 2021 09:16:46 GMT+0100 (British Summer Time),1632385006688,10.888183333333334,image_selection,9,control-random
2253,"Based on the following dialogue between Ann and Bob, which of the two scenes is more likely to be the one that Bob is describing?<br/><br/>Please select by clicking on the respective picture.<hr>",6423,24,"<b>Bob</b>: If the ANT block falls, the CONS block will fall.",jessica,exhaustive,non-exhaustive,,Graduated College,1632385659979,none,67,female,group1,trial18,if1_un,if1_uu,English ,stimuli/img/group1/if1_un.png,stimuli/img/group1/if1_uu.png,614af4e91d055f95ee624545,neutral,<b>Ann</b>: Which blocks do you think will fall?,non-exhaustive,picture2,Thu Sep 23 2021 09:16:46 GMT+0100 (British Summer Time),1632385006688,10.888183333333334,image_selection,10,critical
2253,"Based on the following dialogue between Ann and Bob, which of the two scenes is more likely to be the one that Bob is describing?<br/><br/>Please select by clicking on the respective picture.<hr>",63023,24,<b>Bob</b>: NEITHER the ANT NOR the CONS block will fall.,jessica,,,,Graduated College,1632385659979,picture2,67,female,group2,trial12,if1_hn,if1_nn,English ,stimuli/img/group2/if1_hn.png,stimuli/img/group2/if1_nn.png,614af4e91d055f95ee624545,cons,<b>Ann</b>: Will the CONS block fall?,,picture2,Thu Sep 23 2021 09:16:46 GMT+0100 (British Summer Time),1632385006688,10.888183333333334,image_selection,11,control-random
2253,"Based on the following dialogue between Ann and Bob, which of the two scenes is more likely to be the one that Bob is describing?<br/><br/>Please select by clicking on the respective picture.<hr>",4479,24,"<b>Bob</b>: If the ANT block falls, the CONS block will fall.",jessica,exhaustive,non-exhaustive,,Graduated College,1632385659979,picture1,67,female,group2,trial2,if1_un,if2_unu,English ,stimuli/img/group2/if1_un.png,stimuli/img/group2/if2_unu.png,614af4e91d055f95ee624545,cons,<b>Ann</b>: Will the CONS block fall?,exhaustive,picture1,Thu Sep 23 2021 09:16:46 GMT+0100 (British Summer Time),1632385006688,10.888183333333334,image_selection,12,critical
2253,"Based on the following dialogue between Ann and Bob, which of the two scenes is more likely to be the one that Bob is describing?<br/><br/>Please select by clicking on the respective picture.<hr>",40111,24,"<b>Bob</b>: If the ANT block falls, the CONS block will fall.",jessica,exhaustive,non-exhaustive,,Graduated College,1632385659979,picture1,67,female,group1,trial5,if2_unn,if1_uu,English ,stimuli/img/group1/if2_unn.png,stimuli/img/group1/if1_uu.png,614af4e91d055f95ee624545,cons,<b>Ann</b>: Will the CONS block fall?,non-exhaustive,picture2,Thu Sep 23 2021 09:16:46 GMT+0100 (British Summer Time),1632385006688,10.888183333333334,image_selection,13,critical
2253,"Based on the following dialogue between Ann and Bob, which of the two scenes is more likely to be the one that Bob is describing?<br/><br/>Please select by clicking on the respective picture.<hr>",4783,24,"<b>Bob</b>: If the ANT block falls, the CONS block will fall.",jessica,exhaustive,non-exhaustive,,Graduated College,1632385659979,none,67,female,group1,trial3,if1_un,if2_unu,English ,stimuli/img/group1/if1_un.png,stimuli/img/group1/if2_unu.png,614af4e91d055f95ee624545,neutral,<b>Ann</b>: Which blocks do you think will fall?,exhaustive,picture1,Thu Sep 23 2021 09:16:46 GMT+0100 (British Summer Time),1632385006688,10.888183333333334,image_selection,14,critical
2253,"Based on the following dialogue between Ann and Bob, which of the two scenes is more likely to be the one that Bob is describing?<br/><br/>Please select by clicking on the respective picture.<hr>",4889,24,"<b>Bob</b>: If the ANT block falls, the CONS block will fall.",jessica,exhaustive,non-exhaustive,,Graduated College,1632385659979,none,67,female,group2,trial13,if2_unn,if2_unu,English ,stimuli/img/group2/if2_unn.png,stimuli/img/group2/if2_unu.png,614af4e91d055f95ee624545,if_ant,<b>Ann</b>: What happens if the ANT block falls?,exhaustive,picture1,Thu Sep 23 2021 09:16:46 GMT+0100 (British Summer Time),1632385006688,10.888183333333334,image_selection,15,critical
2253,"Based on the following dialogue between Ann and Bob, which of the two scenes is more likely to be the one that Bob is describing?<br/><br/>Please select by clicking on the respective picture.<hr>",31968,24,"<b>Bob</b>: If the ANT block falls, the CONS block will fall.",jessica,exhaustive,non-exhaustive,,Graduated College,1632385659979,none,67,female,group1,trial1,if1_un,if2_unu,English ,stimuli/img/group1/if1_un.png,stimuli/img/group1/if2_unu.png,614af4e91d055f95ee624545,if_ant,<b>Ann</b>: What happens if the ANT block falls?,exhaustive,picture1,Thu Sep 23 2021 09:16:46 GMT+0100 (British Summer Time),1632385006688,10.888183333333334,image_selection,16,critical
2253,"Based on the following dialogue between Ann and Bob, which of the two scenes is more likely to be the one that Bob is describing?<br/><br/>Please select by clicking on the respective picture.<hr>",3944,24,"<b>Bob</b>: If the ANT block falls, the CONS block will fall.",jessica,exhaustive,non-exhaustive,,Graduated College,1632385659979,picture1,67,female,group2,trial17,if1_un,if1_uu,English ,stimuli/img/group2/if1_un.png,stimuli/img/group2/if1_uu.png,614af4e91d055f95ee624545,cons,<b>Ann</b>: Will the CONS block fall?,non-exhaustive,picture2,Thu Sep 23 2021 09:16:46 GMT+0100 (British Summer Time),1632385006688,10.888183333333334,image_selection,17,critical
2253,"Based on the following dialogue between Ann and Bob, which of the two scenes is more likely to be the one that Bob is describing?<br/><br/>Please select by clicking on the respective picture.<hr>",7671,24,"<b>Bob</b>: If the ANT block falls, the CONS block will fall.",jessica,exhaustive,non-exhaustive,,Graduated College,1632385659979,picture1,67,female,group2,trial14,if2_unn,if2_unu,English ,stimuli/img/group2/if2_unn.png,stimuli/img/group2/if2_unu.png,614af4e91d055f95ee624545,cons,<b>Ann</b>: Will the CONS block fall?,exhaustive,picture1,Thu Sep 23 2021 09:16:46 GMT+0100 (British Summer Time),1632385006688,10.888183333333334,image_selection,18,critical
2252,Use the buttons below to select all the blocks that you think will fall.<br/>(Multiple selections possible!),23505,38,NA,susan,NA,NA,,Higher Degree,1632385539737,green,67,female,NA,independent_edge_nh,NA,NA,English,NA,NA,6147a549bf7a60b2fc8a13f5,,NA,green,NA,Thu Sep 23 2021 09:16:23 GMT+0100 (British Summer Time),1632384983855,9.2647,animation_buttons,1,training
2252,Use the buttons below to select all the blocks that you think will fall.<br/>(Multiple selections possible!),17552,38,NA,susan,NA,NA,,Higher Degree,1632385539737,none,67,female,NA,if2_nnl,NA,NA,English,NA,NA,6147a549bf7a60b2fc8a13f5,,NA,green|yellow,NA,Thu Sep 23 2021 09:16:23 GMT+0100 (British Summer Time),1632384983855,9.2647,animation_buttons,2,training
2252,Use the buttons below to select all the blocks that you think will fall.<br/>(Multiple selections possible!),12337,38,NA,susan,NA,NA,,Higher Degree,1632385539737,blue|green,67,female,NA,if1_hn,NA,NA,English,NA,NA,6147a549bf7a60b2fc8a13f5,,NA,blue,NA,Thu Sep 23 2021 09:16:23 GMT+0100 (British Summer Time),1632384983855,9.2647,animation_buttons,3,training
2252,Use the buttons below to select all the blocks that you think will fall.<br/>(Multiple selections possible!),9515,38,NA,susan,NA,NA,,Higher Degree,1632385539737,none,67,female,NA,if1_nn,NA,NA,English,NA,NA,6147a549bf7a60b2fc8a13f5,,NA,none,NA,Thu Sep 23 2021 09:16:23 GMT+0100 (British Summer Time),1632384983855,9.2647,animation_buttons,4,training
2252,Use the buttons below to select all the blocks that you think will fall.<br/>(Multiple selections possible!),18702,38,NA,susan,NA,NA,,Higher Degree,1632385539737,blue|green|yellow,67,female,NA,if2_hnh,NA,NA,English,NA,NA,6147a549bf7a60b2fc8a13f5,,NA,blue|green|yellow,NA,Thu Sep 23 2021 09:16:23 GMT+0100 (British Summer Time),1632384983855,9.2647,animation_buttons,5,training
2252,Use the buttons below to select all the blocks that you think will fall.<br/>(Multiple selections possible!),9142,38,NA,susan,NA,NA,,Higher Degree,1632385539737,none,67,female,NA,if1_ln,NA,NA,English,NA,NA,6147a549bf7a60b2fc8a13f5,,NA,blue|green,NA,Thu Sep 23 2021 09:16:23 GMT+0100 (British Summer Time),1632384983855,9.2647,animation_buttons,6,training
2252,Use the buttons below to select all the blocks that you think will fall.<br/>(Multiple selections possible!),19296,38,NA,susan,NA,NA,,Higher Degree,1632385539737,green|yellow,67,female,NA,if2_nnh,NA,NA,English,NA,NA,6147a549bf7a60b2fc8a13f5,,NA,green|yellow,NA,Thu Sep 23 2021 09:16:23 GMT+0100 (British Summer Time),1632384983855,9.2647,animation_buttons,7,training
2252,"EXAMPLE TRIAL<br/><br/>Based on the following dialogue between Ann and Bob, which of the two scenes is more likely to be the one that Bob is describing?<br/><br/>Please select by clicking on the respective picture.<hr>",27361,38,<b>Bob</b>: The YELLOW block will fall.,susan,,,,Higher Degree,1632385539737,picture1,67,female,example,example-test-trials,example_test_trials1,example_test_trials2,English,stimuli/img/example_test_trials1.png,stimuli/img/example_test_trials2.png,6147a549bf7a60b2fc8a13f5,neutral,<b>Ann</b>: Which blocks do you think will fall?,,picture1,Thu Sep 23 2021 09:16:23 GMT+0100 (British Summer Time),1632384983855,9.2647,image_selection,1,test-example
2252,"Based on the following dialogue between Ann and Bob, which of the two scenes is more likely to be the one that Bob is describing?<br/><br/>Please select by clicking on the respective picture.<hr>",21598,38,<b>Bob</b>: NEITHER the YELLOW NOR the CONS block will fall.,susan,,,,Higher Degree,1632385539737,picture1,67,female,group2,trial9,if2_nnn,if2_nnh,English,stimuli/img/group2/if2_nnn.png,stimuli/img/group2/if2_nnh.png,6147a549bf7a60b2fc8a13f5,if_ant_yellow,<b>Ann</b>: What happens if the YELLOW block falls?,,picture1,Thu Sep 23 2021 09:16:23 GMT+0100 (British Summer Time),1632384983855,9.2647,image_selection,1,control-physics
2252,"Based on the following dialogue between Ann and Bob, which of the two scenes is more likely to be the one that Bob is describing?<br/><br/>Please select by clicking on the respective picture.<hr>",14849,38,"<b>Bob</b>: If the ANT block falls, the CONS block will fall.",susan,exhaustive,non-exhaustive,,Higher Degree,1632385539737,none,67,female,group1,trial4,if2_unn,if1_uu,English,stimuli/img/group1/if2_unn.png,stimuli/img/group1/if1_uu.png,6147a549bf7a60b2fc8a13f5,if_ant,<b>Ann</b>: What happens if the ANT block falls?,non-exhaustive,picture2,Thu Sep 23 2021 09:16:23 GMT+0100 (British Summer Time),1632384983855,9.2647,image_selection,2,critical
2252,"Based on the following dialogue between Ann and Bob, which of the two scenes is more likely to be the one that Bob is describing?<br/><br/>Please select by clicking on the respective picture.<hr>",23625,38,<b>Bob</b>: NEITHER the ANT NOR the CONS block will fall.,susan,,,,Higher Degree,1632385539737,picture1,67,female,group1,trial7,if1_nn,if2_nnh,English,stimuli/img/group1/if1_nn.png,stimuli/img/group1/if2_nnh.png,6147a549bf7a60b2fc8a13f5,neutral,<b>Ann</b>: Which blocks do you think will fall?,,picture1,Thu Sep 23 2021 09:16:23 GMT+0100 (British Summer Time),1632384983855,9.2647,image_selection,3,control-physics
2252,"Based on the following dialogue between Ann and Bob, which of the two scenes is more likely to be the one that Bob is describing?<br/><br/>Please select by clicking on the respective picture.<hr>",27483,38,"<b>Bob</b>: If the ANT block falls, the CONS block will fall.",susan,exhaustive,non-exhaustive,,Higher Degree,1632385539737,none,67,female,group2,trial6,if2_unn,if1_uu,English,stimuli/img/group2/if2_unn.png,stimuli/img/group2/if1_uu.png,6147a549bf7a60b2fc8a13f5,neutral,<b>Ann</b>: Which blocks do you think will fall?,non-exhaustive,picture2,Thu Sep 23 2021 09:16:23 GMT+0100 (British Summer Time),1632384983855,9.2647,image_selection,4,critical
2252,"Based on the following dialogue between Ann and Bob, which of the two scenes is more likely to be the one that Bob is describing?<br/><br/>Please select by clicking on the respective picture.<hr>",12580,38,<b>Bob</b>: The CONS and the ANT block will fall.,susan,,,,Higher Degree,1632385539737,picture2,67,female,group1,trial8,if1_nn,if1_hn,English,stimuli/img/group1/if1_nn.png,stimuli/img/group1/if1_hn.png,6147a549bf7a60b2fc8a13f5,cons,<b>Ann</b>: Will the CONS block fall?,,picture2,Thu Sep 23 2021 09:16:23 GMT+0100 (British Summer Time),1632384983855,9.2647,image_selection,5,control-physics
2252,"Based on the following dialogue between Ann and Bob, which of the two scenes is more likely to be the one that Bob is describing?<br/><br/>Please select by clicking on the respective picture.<hr>",19772,38,"<b>Bob</b>: If the ANT block falls, the CONS block will fall.",susan,exhaustive,non-exhaustive,,Higher Degree,1632385539737,picture1,67,female,group2,trial14,if2_unn,if2_unu,English,stimuli/img/group2/if2_unn.png,stimuli/img/group2/if2_unu.png,6147a549bf7a60b2fc8a13f5,cons,<b>Ann</b>: Will the CONS block fall?,exhaustive,picture1,Thu Sep 23 2021 09:16:23 GMT+0100 (British Summer Time),1632384983855,9.2647,image_selection,6,critical
2252,"Based on the following dialogue between Ann and Bob, which of the two scenes is more likely to be the one that Bob is describing?<br/><br/>Please select by clicking on the respective picture.<hr>",9360,38,<b>Bob</b>: The CONS block will fall.,susan,,,,Higher Degree,1632385539737,picture1,67,female,group1,trial11,independent_edge_nh,independent_edge_nn,English,stimuli/img/group1/independent_edge_nh.png,stimuli/img/group1/independent_edge_nn.png,6147a549bf7a60b2fc8a13f5,neutral,<b>Ann</b>: Which blocks do you think will fall?,,picture1,Thu Sep 23 2021 09:16:23 GMT+0100 (British Summer Time),1632384983855,9.2647,image_selection,7,control-random
2252,"Based on the following dialogue between Ann and Bob, which of the two scenes is more likely to be the one that Bob is describing?<br/><br/>Please select by clicking on the respective picture.<hr>",12487,38,"<b>Bob</b>: If the ANT block falls, the CONS block will fall.",susan,exhaustive,non-exhaustive,,Higher Degree,1632385539737,none,67,female,group2,trial16,if1_un,if1_uu,English,stimuli/img/group2/if1_un.png,stimuli/img/group2/if1_uu.png,6147a549bf7a60b2fc8a13f5,if_ant,<b>Ann</b>: What happens if the ANT block falls?,non-exhaustive,picture2,Thu Sep 23 2021 09:16:23 GMT+0100 (British Summer Time),1632384983855,9.2647,image_selection,8,critical
2252,"Based on the following dialogue between Ann and Bob, which of the two scenes is more likely to be the one that Bob is describing?<br/><br/>Please select by clicking on the respective picture.<hr>",10225,38,<b>Bob</b>: NEITHER the ANT NOR the CONS block will fall.,susan,,,,Higher Degree,1632385539737,picture2,67,female,group2,trial12,if1_hn,if1_nn,English,stimuli/img/group2/if1_hn.png,stimuli/img/group2/if1_nn.png,6147a549bf7a60b2fc8a13f5,cons,<b>Ann</b>: Will the CONS block fall?,,picture2,Thu Sep 23 2021 09:16:23 GMT+0100 (British Summer Time),1632384983855,9.2647,image_selection,9,control-random
2252,"Based on the following dialogue between Ann and Bob, which of the two scenes is more likely to be the one that Bob is describing?<br/><br/>Please select by clicking on the respective picture.<hr>",12139,38,"<b>Bob</b>: If the ANT block falls, the CONS block will fall.",susan,exhaustive,non-exhaustive,,Higher Degree,1632385539737,none,67,female,group2,trial1,if1_un,if2_unu,English,stimuli/img/group2/if1_un.png,stimuli/img/group2/if2_unu.png,6147a549bf7a60b2fc8a13f5,if_ant,<b>Ann</b>: What happens if the ANT block falls?,exhaustive,picture1,Thu Sep 23 2021 09:16:23 GMT+0100 (British Summer Time),1632384983855,9.2647,image_selection,10,critical
2252,"Based on the following dialogue between Ann and Bob, which of the two scenes is more likely to be the one that Bob is describing?<br/><br/>Please select by clicking on the respective picture.<hr>",10457,38,<b>Bob</b>: The CONS block will NOT fall.,susan,,,,Higher Degree,1632385539737,picture2,67,female,group1,trial10,independent_edge_nh,independent_edge_nn,English,stimuli/img/group1/independent_edge_nh.png,stimuli/img/group1/independent_edge_nn.png,6147a549bf7a60b2fc8a13f5,if_cons,<b>Ann</b>: What happens if the CONS block falls?,,picture2,Thu Sep 23 2021 09:16:23 GMT+0100 (British Summer Time),1632384983855,9.2647,image_selection,11,control-random
2252,"Based on the following dialogue between Ann and Bob, which of the two scenes is more likely to be the one that Bob is describing?<br/><br/>Please select by clicking on the respective picture.<hr>",8296,38,"<b>Bob</b>: If the ANT block falls, the CONS block will fall.",susan,exhaustive,non-exhaustive,,Higher Degree,1632385539737,none,67,female,group1,trial18,if1_un,if1_uu,English,stimuli/img/group1/if1_un.png,stimuli/img/group1/if1_uu.png,6147a549bf7a60b2fc8a13f5,neutral,<b>Ann</b>: Which blocks do you think will fall?,non-exhaustive,picture2,Thu Sep 23 2021 09:16:23 GMT+0100 (British Summer Time),1632384983855,9.2647,image_selection,12,critical
2252,"Based on the following dialogue between Ann and Bob, which of the two scenes is more likely to be the one that Bob is describing?<br/><br/>Please select by clicking on the respective picture.<hr>",22140,38,"<b>Bob</b>: If the ANT block falls, the CONS block will fall.",susan,exhaustive,non-exhaustive,,Higher Degree,1632385539737,picture1,67,female,group1,trial2,if1_un,if2_unu,English,stimuli/img/group1/if1_un.png,stimuli/img/group1/if2_unu.png,6147a549bf7a60b2fc8a13f5,cons,<b>Ann</b>: Will the CONS block fall?,exhaustive,picture1,Thu Sep 23 2021 09:16:23 GMT+0100 (British Summer Time),1632384983855,9.2647,image_selection,13,critical
2252,"Based on the following dialogue between Ann and Bob, which of the two scenes is more likely to be the one that Bob is describing?<br/><br/>Please select by clicking on the respective picture.<hr>",7532,38,"<b>Bob</b>: If the ANT block falls, the CONS block will fall.",susan,exhaustive,non-exhaustive,,Higher Degree,1632385539737,picture1,67,female,group2,trial5,if2_unn,if1_uu,English,stimuli/img/group2/if2_unn.png,stimuli/img/group2/if1_uu.png,6147a549bf7a60b2fc8a13f5,cons,<b>Ann</b>: Will the CONS block fall?,non-exhaustive,picture2,Thu Sep 23 2021 09:16:23 GMT+0100 (British Summer Time),1632384983855,9.2647,image_selection,14,critical
2252,"Based on the following dialogue between Ann and Bob, which of the two scenes is more likely to be the one that Bob is describing?<br/><br/>Please select by clicking on the respective picture.<hr>",17047,38,"<b>Bob</b>: If the ANT block falls, the CONS block will fall.",susan,exhaustive,non-exhaustive,,Higher Degree,1632385539737,none,67,female,group1,trial13,if2_unn,if2_unu,English,stimuli/img/group1/if2_unn.png,stimuli/img/group1/if2_unu.png,6147a549bf7a60b2fc8a13f5,if_ant,<b>Ann</b>: What happens if the ANT block falls?,non-exhaustive,picture2,Thu Sep 23 2021 09:16:23 GMT+0100 (British Summer Time),1632384983855,9.2647,image_selection,15,critical
2252,"Based on the following dialogue between Ann and Bob, which of the two scenes is more likely to be the one that Bob is describing?<br/><br/>Please select by clicking on the respective picture.<hr>",16278,38,"<b>Bob</b>: If the ANT block falls, the CONS block will fall.",susan,exhaustive,non-exhaustive,,Higher Degree,1632385539737,none,67,female,group1,trial15,if2_unn,if2_unu,English,stimuli/img/group1/if2_unn.png,stimuli/img/group1/if2_unu.png,6147a549bf7a60b2fc8a13f5,neutral,<b>Ann</b>: Which blocks do you think will fall?,non-exhaustive,picture2,Thu Sep 23 2021 09:16:23 GMT+0100 (British Summer Time),1632384983855,9.2647,image_selection,16,critical
2252,"Based on the following dialogue between Ann and Bob, which of the two scenes is more likely to be the one that Bob is describing?<br/><br/>Please select by clicking on the respective picture.<hr>",8057,38,"<b>Bob</b>: If the ANT block falls, the CONS block will fall.",susan,exhaustive,non-exhaustive,,Higher Degree,1632385539737,picture1,67,female,group1,trial17,if1_un,if1_uu,English,stimuli/img/group1/if1_un.png,stimuli/img/group1/if1_uu.png,6147a549bf7a60b2fc8a13f5,cons,<b>Ann</b>: Will the CONS block fall?,non-exhaustive,picture2,Thu Sep 23 2021 09:16:23 GMT+0100 (British Summer Time),1632384983855,9.2647,image_selection,17,critical
2252,"Based on the following dialogue between Ann and Bob, which of the two scenes is more likely to be the one that Bob is describing?<br/><br/>Please select by clicking on the respective picture.<hr>",13345,38,"<b>Bob</b>: If the ANT block falls, the CONS block will fall.",susan,exhaustive,non-exhaustive,,Higher Degree,1632385539737,none,67,female,group1,trial3,if1_un,if2_unu,English,stimuli/img/group1/if1_un.png,stimuli/img/group1/if2_unu.png,6147a549bf7a60b2fc8a13f5,neutral,<b>Ann</b>: Which blocks do you think will fall?,non-exhaustive,picture2,Thu Sep 23 2021 09:16:23 GMT+0100 (British Summer Time),1632384983855,9.2647,image_selection,18,critical
2251,Use the buttons below to select all the blocks that you think will fall.<br/>(Multiple selections possible!),31103,24,NA,jennifer,NA,NA,,Graduated College,1632385380558,blue|green|yellow,67,female,NA,if2_hnh,NA,NA,English ,NA,NA,61493000d213231d10cd473a,,NA,green|yellow,NA,Thu Sep 23 2021 09:17:00 GMT+0100 (BST),1632385020598,5.999333333333333,animation_buttons,1,training
2251,Use the buttons below to select all the blocks that you think will fall.<br/>(Multiple selections possible!),9543,24,NA,jennifer,NA,NA,,Graduated College,1632385380558,none,67,female,NA,if2_nnl,NA,NA,English ,NA,NA,61493000d213231d10cd473a,,NA,none,NA,Thu Sep 23 2021 09:17:00 GMT+0100 (BST),1632385020598,5.999333333333333,animation_buttons,2,training
2251,Use the buttons below to select all the blocks that you think will fall.<br/>(Multiple selections possible!),7340,24,NA,jennifer,NA,NA,,Graduated College,1632385380558,green,67,female,NA,independent_edge_nh,NA,NA,English ,NA,NA,61493000d213231d10cd473a,,NA,green,NA,Thu Sep 23 2021 09:17:00 GMT+0100 (BST),1632385020598,5.999333333333333,animation_buttons,3,training
2251,Use the buttons below to select all the blocks that you think will fall.<br/>(Multiple selections possible!),5572,24,NA,jennifer,NA,NA,,Graduated College,1632385380558,none,67,female,NA,if1_nn,NA,NA,English ,NA,NA,61493000d213231d10cd473a,,NA,none,NA,Thu Sep 23 2021 09:17:00 GMT+0100 (BST),1632385020598,5.999333333333333,animation_buttons,4,training
2251,Use the buttons below to select all the blocks that you think will fall.<br/>(Multiple selections possible!),12209,24,NA,jennifer,NA,NA,,Graduated College,1632385380558,blue|green,67,female,NA,if1_hn,NA,NA,English ,NA,NA,61493000d213231d10cd473a,,NA,blue|green,NA,Thu Sep 23 2021 09:17:00 GMT+0100 (BST),1632385020598,5.999333333333333,animation_buttons,5,training
2251,Use the buttons below to select all the blocks that you think will fall.<br/>(Multiple selections possible!),5478,24,NA,jennifer,NA,NA,,Graduated College,1632385380558,none,67,female,NA,if1_ln,NA,NA,English ,NA,NA,61493000d213231d10cd473a,,NA,none,NA,Thu Sep 23 2021 09:17:00 GMT+0100 (BST),1632385020598,5.999333333333333,animation_buttons,6,training
2251,Use the buttons below to select all the blocks that you think will fall.<br/>(Multiple selections possible!),12336,24,NA,jennifer,NA,NA,,Graduated College,1632385380558,blue|yellow,67,female,NA,if2_nnh,NA,NA,English ,NA,NA,61493000d213231d10cd473a,,NA,blue|yellow,NA,Thu Sep 23 2021 09:17:00 GMT+0100 (BST),1632385020598,5.999333333333333,animation_buttons,7,training
2251,"EXAMPLE TRIAL<br/><br/>Based on the following dialogue between Ann and Bob, which of the two scenes is more likely to be the one that Bob is describing?<br/><br/>Please select by clicking on the respective picture.<hr>",19717,24,<b>Bob</b>: The YELLOW block will fall.,jennifer,,,,Graduated College,1632385380558,picture1,67,female,example,example-test-trials,example_test_trials1,example_test_trials2,English ,stimuli/img/example_test_trials1.png,stimuli/img/example_test_trials2.png,61493000d213231d10cd473a,neutral,<b>Ann</b>: Which blocks do you think will fall?,,picture1,Thu Sep 23 2021 09:17:00 GMT+0100 (BST),1632385020598,5.999333333333333,image_selection,1,test-example
2251,"Based on the following dialogue between Ann and Bob, which of the two scenes is more likely to be the one that Bob is describing?<br/><br/>Please select by clicking on the respective picture.<hr>",12997,24,<b>Bob</b>: NEITHER the YELLOW NOR the CONS block will fall.,jennifer,,,,Graduated College,1632385380558,picture1,67,female,group1,trial9,if2_nnn,if2_nnh,English ,stimuli/img/group1/if2_nnn.png,stimuli/img/group1/if2_nnh.png,61493000d213231d10cd473a,if_ant_yellow,<b>Ann</b>: What happens if the YELLOW block falls?,,picture1,Thu Sep 23 2021 09:17:00 GMT+0100 (BST),1632385020598,5.999333333333333,image_selection,1,control-physics
2251,"Based on the following dialogue between Ann and Bob, which of the two scenes is more likely to be the one that Bob is describing?<br/><br/>Please select by clicking on the respective picture.<hr>",21538,24,"<b>Bob</b>: If the ANT block falls, the CONS block will fall.",jennifer,exhaustive,non-exhaustive,,Graduated College,1632385380558,none,67,female,group2,trial13,if2_unn,if2_unu,English ,stimuli/img/group2/if2_unn.png,stimuli/img/group2/if2_unu.png,61493000d213231d10cd473a,if_ant,<b>Ann</b>: What happens if the ANT block falls?,exhaustive,picture1,Thu Sep 23 2021 09:17:00 GMT+0100 (BST),1632385020598,5.999333333333333,image_selection,2,critical
2251,"Based on the following dialogue between Ann and Bob, which of the two scenes is more likely to be the one that Bob is describing?<br/><br/>Please select by clicking on the respective picture.<hr>",9006,24,<b>Bob</b>: The CONS and the ANT block will fall.,jennifer,,,,Graduated College,1632385380558,picture2,67,female,group1,trial8,if1_nn,if1_hn,English ,stimuli/img/group1/if1_nn.png,stimuli/img/group1/if1_hn.png,61493000d213231d10cd473a,cons,<b>Ann</b>: Will the CONS block fall?,,picture2,Thu Sep 23 2021 09:17:00 GMT+0100 (BST),1632385020598,5.999333333333333,image_selection,3,control-physics
2251,"Based on the following dialogue between Ann and Bob, which of the two scenes is more likely to be the one that Bob is describing?<br/><br/>Please select by clicking on the respective picture.<hr>",9580,24,"<b>Bob</b>: If the ANT block falls, the CONS block will fall.",jennifer,exhaustive,non-exhaustive,,Graduated College,1632385380558,none,67,female,group2,trial15,if2_unn,if2_unu,English ,stimuli/img/group2/if2_unn.png,stimuli/img/group2/if2_unu.png,61493000d213231d10cd473a,neutral,<b>Ann</b>: Which blocks do you think will fall?,non-exhaustive,picture2,Thu Sep 23 2021 09:17:00 GMT+0100 (BST),1632385020598,5.999333333333333,image_selection,4,critical
2251,"Based on the following dialogue between Ann and Bob, which of the two scenes is more likely to be the one that Bob is describing?<br/><br/>Please select by clicking on the respective picture.<hr>",6133,24,<b>Bob</b>: NEITHER the ANT NOR the CONS block will fall.,jennifer,,,,Graduated College,1632385380558,picture1,67,female,group1,trial7,if1_nn,if2_nnh,English ,stimuli/img/group1/if1_nn.png,stimuli/img/group1/if2_nnh.png,61493000d213231d10cd473a,neutral,<b>Ann</b>: Which blocks do you think will fall?,,picture1,Thu Sep 23 2021 09:17:00 GMT+0100 (BST),1632385020598,5.999333333333333,image_selection,5,control-physics
2251,"Based on the following dialogue between Ann and Bob, which of the two scenes is more likely to be the one that Bob is describing?<br/><br/>Please select by clicking on the respective picture.<hr>",13773,24,"<b>Bob</b>: If the ANT block falls, the CONS block will fall.",jennifer,exhaustive,non-exhaustive,,Graduated College,1632385380558,none,67,female,group2,trial18,if1_un,if1_uu,English ,stimuli/img/group2/if1_un.png,stimuli/img/group2/if1_uu.png,61493000d213231d10cd473a,neutral,<b>Ann</b>: Which blocks do you think will fall?,non-exhaustive,picture2,Thu Sep 23 2021 09:17:00 GMT+0100 (BST),1632385020598,5.999333333333333,image_selection,6,critical
2251,"Based on the following dialogue between Ann and Bob, which of the two scenes is more likely to be the one that Bob is describing?<br/><br/>Please select by clicking on the respective picture.<hr>",5565,24,<b>Bob</b>: The CONS block will fall.,jennifer,,,,Graduated College,1632385380558,picture1,67,female,group2,trial11,independent_edge_nh,independent_edge_nn,English ,stimuli/img/group2/independent_edge_nh.png,stimuli/img/group2/independent_edge_nn.png,61493000d213231d10cd473a,neutral,<b>Ann</b>: Which blocks do you think will fall?,,picture1,Thu Sep 23 2021 09:17:00 GMT+0100 (BST),1632385020598,5.999333333333333,image_selection,7,control-random
2251,"Based on the following dialogue between Ann and Bob, which of the two scenes is more likely to be the one that Bob is describing?<br/><br/>Please select by clicking on the respective picture.<hr>",13923,24,"<b>Bob</b>: If the ANT block falls, the CONS block will fall.",jennifer,exhaustive,non-exhaustive,,Graduated College,1632385380558,picture1,67,female,group2,trial14,if2_unn,if2_unu,English ,stimuli/img/group2/if2_unn.png,stimuli/img/group2/if2_unu.png,61493000d213231d10cd473a,cons,<b>Ann</b>: Will the CONS block fall?,exhaustive,picture1,Thu Sep 23 2021 09:17:00 GMT+0100 (BST),1632385020598,5.999333333333333,image_selection,8,critical
2251,"Based on the following dialogue between Ann and Bob, which of the two scenes is more likely to be the one that Bob is describing?<br/><br/>Please select by clicking on the respective picture.<hr>",6225,24,<b>Bob</b>: NEITHER the ANT NOR the CONS block will fall.,jennifer,,,,Graduated College,1632385380558,picture2,67,female,group1,trial12,if1_hn,if1_nn,English ,stimuli/img/group1/if1_hn.png,stimuli/img/group1/if1_nn.png,61493000d213231d10cd473a,cons,<b>Ann</b>: Will the CONS block fall?,,picture2,Thu Sep 23 2021 09:17:00 GMT+0100 (BST),1632385020598,5.999333333333333,image_selection,9,control-random
2251,"Based on the following dialogue between Ann and Bob, which of the two scenes is more likely to be the one that Bob is describing?<br/><br/>Please select by clicking on the respective picture.<hr>",6225,24,"<b>Bob</b>: If the ANT block falls, the CONS block will fall.",jennifer,exhaustive,non-exhaustive,,Graduated College,1632385380558,picture1,67,female,group1,trial2,if1_un,if2_unu,English ,stimuli/img/group1/if1_un.png,stimuli/img/group1/if2_unu.png,61493000d213231d10cd473a,cons,<b>Ann</b>: Will the CONS block fall?,exhaustive,picture1,Thu Sep 23 2021 09:17:00 GMT+0100 (BST),1632385020598,5.999333333333333,image_selection,10,critical
2251,"Based on the following dialogue between Ann and Bob, which of the two scenes is more likely to be the one that Bob is describing?<br/><br/>Please select by clicking on the respective picture.<hr>",6366,24,<b>Bob</b>: The CONS block will NOT fall.,jennifer,,,,Graduated College,1632385380558,picture2,67,female,group2,trial10,independent_edge_nh,independent_edge_nn,English ,stimuli/img/group2/independent_edge_nh.png,stimuli/img/group2/independent_edge_nn.png,61493000d213231d10cd473a,if_cons,<b>Ann</b>: What happens if the CONS block falls?,,picture2,Thu Sep 23 2021 09:17:00 GMT+0100 (BST),1632385020598,5.999333333333333,image_selection,11,control-random
2251,"Based on the following dialogue between Ann and Bob, which of the two scenes is more likely to be the one that Bob is describing?<br/><br/>Please select by clicking on the respective picture.<hr>",6309,24,"<b>Bob</b>: If the ANT block falls, the CONS block will fall.",jennifer,exhaustive,non-exhaustive,,Graduated College,1632385380558,none,67,female,group2,trial1,if1_un,if2_unu,English ,stimuli/img/group2/if1_un.png,stimuli/img/group2/if2_unu.png,61493000d213231d10cd473a,if_ant,<b>Ann</b>: What happens if the ANT block falls?,exhaustive,picture1,Thu Sep 23 2021 09:17:00 GMT+0100 (BST),1632385020598,5.999333333333333,image_selection,12,critical
2251,"Based on the following dialogue between Ann and Bob, which of the two scenes is more likely to be the one that Bob is describing?<br/><br/>Please select by clicking on the respective picture.<hr>",14976,24,"<b>Bob</b>: If the ANT block falls, the CONS block will fall.",jennifer,exhaustive,non-exhaustive,,Graduated College,1632385380558,picture1,67,female,group2,trial17,if1_un,if1_uu,English ,stimuli/img/group2/if1_un.png,stimuli/img/group2/if1_uu.png,61493000d213231d10cd473a,cons,<b>Ann</b>: Will the CONS block fall?,non-exhaustive,picture2,Thu Sep 23 2021 09:17:00 GMT+0100 (BST),1632385020598,5.999333333333333,image_selection,13,critical
2251,"Based on the following dialogue between Ann and Bob, which of the two scenes is more likely to be the one that Bob is describing?<br/><br/>Please select by clicking on the respective picture.<hr>",15661,24,"<b>Bob</b>: If the ANT block falls, the CONS block will fall.",jennifer,exhaustive,non-exhaustive,,Graduated College,1632385380558,picture1,67,female,group2,trial5,if2_unn,if1_uu,English ,stimuli/img/group2/if2_unn.png,stimuli/img/group2/if1_uu.png,61493000d213231d10cd473a,cons,<b>Ann</b>: Will the CONS block fall?,exhaustive,picture1,Thu Sep 23 2021 09:17:00 GMT+0100 (BST),1632385020598,5.999333333333333,image_selection,14,critical
2251,"Based on the following dialogue between Ann and Bob, which of the two scenes is more likely to be the one that Bob is describing?<br/><br/>Please select by clicking on the respective picture.<hr>",6985,24,"<b>Bob</b>: If the ANT block falls, the CONS block will fall.",jennifer,exhaustive,non-exhaustive,,Graduated College,1632385380558,none,67,female,group1,trial3,if1_un,if2_unu,English ,stimuli/img/group1/if1_un.png,stimuli/img/group1/if2_unu.png,61493000d213231d10cd473a,neutral,<b>Ann</b>: Which blocks do you think will fall?,non-exhaustive,picture2,Thu Sep 23 2021 09:17:00 GMT+0100 (BST),1632385020598,5.999333333333333,image_selection,15,critical
2251,"Based on the following dialogue between Ann and Bob, which of the two scenes is more likely to be the one that Bob is describing?<br/><br/>Please select by clicking on the respective picture.<hr>",5649,24,"<b>Bob</b>: If the ANT block falls, the CONS block will fall.",jennifer,exhaustive,non-exhaustive,,Graduated College,1632385380558,none,67,female,group2,trial16,if1_un,if1_uu,English ,stimuli/img/group2/if1_un.png,stimuli/img/group2/if1_uu.png,61493000d213231d10cd473a,if_ant,<b>Ann</b>: What happens if the ANT block falls?,exhaustive,picture1,Thu Sep 23 2021 09:17:00 GMT+0100 (BST),1632385020598,5.999333333333333,image_selection,16,critical
2251,"Based on the following dialogue between Ann and Bob, which of the two scenes is more likely to be the one that Bob is describing?<br/><br/>Please select by clicking on the respective picture.<hr>",6141,24,"<b>Bob</b>: If the ANT block falls, the CONS block will fall.",jennifer,exhaustive,non-exhaustive,,Graduated College,1632385380558,none,67,female,group2,trial6,if2_unn,if1_uu,English ,stimuli/img/group2/if2_unn.png,stimuli/img/group2/if1_uu.png,61493000d213231d10cd473a,neutral,<b>Ann</b>: Which blocks do you think will fall?,exhaustive,picture1,Thu Sep 23 2021 09:17:00 GMT+0100 (BST),1632385020598,5.999333333333333,image_selection,17,critical
2251,"Based on the following dialogue between Ann and Bob, which of the two scenes is more likely to be the one that Bob is describing?<br/><br/>Please select by clicking on the respective picture.<hr>",6784,24,"<b>Bob</b>: If the ANT block falls, the CONS block will fall.",jennifer,exhaustive,non-exhaustive,,Graduated College,1632385380558,none,67,female,group2,trial4,if2_unn,if1_uu,English ,stimuli/img/group2/if2_unn.png,stimuli/img/group2/if1_uu.png,61493000d213231d10cd473a,if_ant,<b>Ann</b>: What happens if the ANT block falls?,non-exhaustive,picture2,Thu Sep 23 2021 09:17:00 GMT+0100 (BST),1632385020598,5.999333333333333,image_selection,18,critical
2250,Use the buttons below to select all the blocks that you think will fall.<br/>(Multiple selections possible!),35955,40,NA,margaret,NA,NA,,Graduated High School,1632385321613,blue|green,67,female,NA,if1_hn,NA,NA,English,NA,NA,614851453b2bdcc33847e120,,NA,blue,NA,Thu Sep 23 2021 09:12:04 GMT+0100 (British Summer Time),1632384724918,9.944916666666666,animation_buttons,1,training
2250,Use the buttons below to select all the blocks that you think will fall.<br/>(Multiple selections possible!),19192,40,NA,margaret,NA,NA,,Graduated High School,1632385321613,none,67,female,NA,if1_ln,NA,NA,English,NA,NA,614851453b2bdcc33847e120,,NA,blue|green,NA,Thu Sep 23 2021 09:12:04 GMT+0100 (British Summer Time),1632384724918,9.944916666666666,animation_buttons,2,training
2250,Use the buttons below to select all the blocks that you think will fall.<br/>(Multiple selections possible!),29482,40,NA,margaret,NA,NA,,Graduated High School,1632385321613,blue|green|yellow,67,female,NA,if2_hnh,NA,NA,English,NA,NA,614851453b2bdcc33847e120,,NA,blue|green|yellow,NA,Thu Sep 23 2021 09:12:04 GMT+0100 (British Summer Time),1632384724918,9.944916666666666,animation_buttons,3,training
2250,Use the buttons below to select all the blocks that you think will fall.<br/>(Multiple selections possible!),22541,40,NA,margaret,NA,NA,,Graduated High School,1632385321613,none,67,female,NA,if2_nnl,NA,NA,English,NA,NA,614851453b2bdcc33847e120,,NA,blue|green,NA,Thu Sep 23 2021 09:12:04 GMT+0100 (British Summer Time),1632384724918,9.944916666666666,animation_buttons,4,training
2250,Use the buttons below to select all the blocks that you think will fall.<br/>(Multiple selections possible!),30285,40,NA,margaret,NA,NA,,Graduated High School,1632385321613,blue|yellow,67,female,NA,if2_nnh,NA,NA,English,NA,NA,614851453b2bdcc33847e120,,NA,blue|yellow,NA,Thu Sep 23 2021 09:12:04 GMT+0100 (British Summer Time),1632384724918,9.944916666666666,animation_buttons,5,training
2250,Use the buttons below to select all the blocks that you think will fall.<br/>(Multiple selections possible!),10708,40,NA,margaret,NA,NA,,Graduated High School,1632385321613,none,67,female,NA,if1_nn,NA,NA,English,NA,NA,614851453b2bdcc33847e120,,NA,none,NA,Thu Sep 23 2021 09:12:04 GMT+0100 (British Summer Time),1632384724918,9.944916666666666,animation_buttons,6,training
2250,Use the buttons below to select all the blocks that you think will fall.<br/>(Multiple selections possible!),10793,40,NA,margaret,NA,NA,,Graduated High School,1632385321613,blue,67,female,NA,independent_edge_nh,NA,NA,English,NA,NA,614851453b2bdcc33847e120,,NA,blue,NA,Thu Sep 23 2021 09:12:04 GMT+0100 (British Summer Time),1632384724918,9.944916666666666,animation_buttons,7,training
2250,"EXAMPLE TRIAL<br/><br/>Based on the following dialogue between Ann and Bob, which of the two scenes is more likely to be the one that Bob is describing?<br/><br/>Please select by clicking on the respective picture.<hr>",42715,40,<b>Bob</b>: The YELLOW block will fall.,margaret,,,,Graduated High School,1632385321613,picture1,67,female,example,example-test-trials,example_test_trials1,example_test_trials2,English,stimuli/img/example_test_trials1.png,stimuli/img/example_test_trials2.png,614851453b2bdcc33847e120,neutral,<b>Ann</b>: Which blocks do you think will fall?,,picture1,Thu Sep 23 2021 09:12:04 GMT+0100 (British Summer Time),1632384724918,9.944916666666666,image_selection,1,test-example
2250,"Based on the following dialogue between Ann and Bob, which of the two scenes is more likely to be the one that Bob is describing?<br/><br/>Please select by clicking on the respective picture.<hr>",35135,40,<b>Bob</b>: NEITHER the YELLOW NOR the CONS block will fall.,margaret,,,,Graduated High School,1632385321613,picture1,67,female,group2,trial9,if2_nnn,if2_nnh,English,stimuli/img/group2/if2_nnn.png,stimuli/img/group2/if2_nnh.png,614851453b2bdcc33847e120,if_ant_yellow,<b>Ann</b>: What happens if the YELLOW block falls?,,picture1,Thu Sep 23 2021 09:12:04 GMT+0100 (British Summer Time),1632384724918,9.944916666666666,image_selection,1,control-physics
2250,"Based on the following dialogue between Ann and Bob, which of the two scenes is more likely to be the one that Bob is describing?<br/><br/>Please select by clicking on the respective picture.<hr>",21494,40,"<b>Bob</b>: If the ANT block falls, the CONS block will fall.",margaret,exhaustive,non-exhaustive,,Graduated High School,1632385321613,none,67,female,group2,trial1,if1_un,if2_unu,English,stimuli/img/group2/if1_un.png,stimuli/img/group2/if2_unu.png,614851453b2bdcc33847e120,if_ant,<b>Ann</b>: What happens if the ANT block falls?,exhaustive,picture1,Thu Sep 23 2021 09:12:04 GMT+0100 (British Summer Time),1632384724918,9.944916666666666,image_selection,2,critical
2250,"Based on the following dialogue between Ann and Bob, which of the two scenes is more likely to be the one that Bob is describing?<br/><br/>Please select by clicking on the respective picture.<hr>",15703,40,<b>Bob</b>: NEITHER the ANT NOR the CONS block will fall.,margaret,,,,Graduated High School,1632385321613,picture1,67,female,group1,trial7,if1_nn,if2_nnh,English,stimuli/img/group1/if1_nn.png,stimuli/img/group1/if2_nnh.png,614851453b2bdcc33847e120,neutral,<b>Ann</b>: Which blocks do you think will fall?,,picture1,Thu Sep 23 2021 09:12:04 GMT+0100 (British Summer Time),1632384724918,9.944916666666666,image_selection,3,control-physics
2250,"Based on the following dialogue between Ann and Bob, which of the two scenes is more likely to be the one that Bob is describing?<br/><br/>Please select by clicking on the respective picture.<hr>",23148,40,"<b>Bob</b>: If the ANT block falls, the CONS block will fall.",margaret,exhaustive,non-exhaustive,,Graduated High School,1632385321613,none,67,female,group1,trial15,if2_unn,if2_unu,English,stimuli/img/group1/if2_unn.png,stimuli/img/group1/if2_unu.png,614851453b2bdcc33847e120,neutral,<b>Ann</b>: Which blocks do you think will fall?,exhaustive,picture1,Thu Sep 23 2021 09:12:04 GMT+0100 (British Summer Time),1632384724918,9.944916666666666,image_selection,4,critical
2250,"Based on the following dialogue between Ann and Bob, which of the two scenes is more likely to be the one that Bob is describing?<br/><br/>Please select by clicking on the respective picture.<hr>",29859,40,<b>Bob</b>: The CONS and the ANT block will fall.,margaret,,,,Graduated High School,1632385321613,picture2,67,female,group2,trial8,if1_nn,if1_hn,English,stimuli/img/group2/if1_nn.png,stimuli/img/group2/if1_hn.png,614851453b2bdcc33847e120,cons,<b>Ann</b>: Will the CONS block fall?,,picture2,Thu Sep 23 2021 09:12:04 GMT+0100 (British Summer Time),1632384724918,9.944916666666666,image_selection,5,control-physics
2250,"Based on the following dialogue between Ann and Bob, which of the two scenes is more likely to be the one that Bob is describing?<br/><br/>Please select by clicking on the respective picture.<hr>",8729,40,"<b>Bob</b>: If the ANT block falls, the CONS block will fall.",margaret,exhaustive,non-exhaustive,,Graduated High School,1632385321613,none,67,female,group2,trial3,if1_un,if2_unu,English,stimuli/img/group2/if1_un.png,stimuli/img/group2/if2_unu.png,614851453b2bdcc33847e120,neutral,<b>Ann</b>: Which blocks do you think will fall?,exhaustive,picture1,Thu Sep 23 2021 09:12:04 GMT+0100 (British Summer Time),1632384724918,9.944916666666666,image_selection,6,critical
2250,"Based on the following dialogue between Ann and Bob, which of the two scenes is more likely to be the one that Bob is describing?<br/><br/>Please select by clicking on the respective picture.<hr>",8262,40,<b>Bob</b>: NEITHER the ANT NOR the CONS block will fall.,margaret,,,,Graduated High School,1632385321613,picture2,67,female,group1,trial12,if1_hn,if1_nn,English,stimuli/img/group1/if1_hn.png,stimuli/img/group1/if1_nn.png,614851453b2bdcc33847e120,cons,<b>Ann</b>: Will the CONS block fall?,,picture2,Thu Sep 23 2021 09:12:04 GMT+0100 (British Summer Time),1632384724918,9.944916666666666,image_selection,7,control-random
2250,"Based on the following dialogue between Ann and Bob, which of the two scenes is more likely to be the one that Bob is describing?<br/><br/>Please select by clicking on the respective picture.<hr>",9730,40,"<b>Bob</b>: If the ANT block falls, the CONS block will fall.",margaret,exhaustive,non-exhaustive,,Graduated High School,1632385321613,none,67,female,group1,trial13,if2_unn,if2_unu,English,stimuli/img/group1/if2_unn.png,stimuli/img/group1/if2_unu.png,614851453b2bdcc33847e120,if_ant,<b>Ann</b>: What happens if the ANT block falls?,exhaustive,picture1,Thu Sep 23 2021 09:12:04 GMT+0100 (British Summer Time),1632384724918,9.944916666666666,image_selection,8,critical
2250,"Based on the following dialogue between Ann and Bob, which of the two scenes is more likely to be the one that Bob is describing?<br/><br/>Please select by clicking on the respective picture.<hr>",5078,40,<b>Bob</b>: The CONS block will fall.,margaret,,,,Graduated High School,1632385321613,picture1,67,female,group1,trial11,independent_edge_nh,independent_edge_nn,English,stimuli/img/group1/independent_edge_nh.png,stimuli/img/group1/independent_edge_nn.png,614851453b2bdcc33847e120,neutral,<b>Ann</b>: Which blocks do you think will fall?,,picture1,Thu Sep 23 2021 09:12:04 GMT+0100 (British Summer Time),1632384724918,9.944916666666666,image_selection,9,control-random
2250,"Based on the following dialogue between Ann and Bob, which of the two scenes is more likely to be the one that Bob is describing?<br/><br/>Please select by clicking on the respective picture.<hr>",56995,40,"<b>Bob</b>: If the ANT block falls, the CONS block will fall.",margaret,exhaustive,non-exhaustive,,Graduated High School,1632385321613,none,67,female,group1,trial18,if1_un,if1_uu,English,stimuli/img/group1/if1_un.png,stimuli/img/group1/if1_uu.png,614851453b2bdcc33847e120,neutral,<b>Ann</b>: Which blocks do you think will fall?,non-exhaustive,picture2,Thu Sep 23 2021 09:12:04 GMT+0100 (British Summer Time),1632384724918,9.944916666666666,image_selection,10,critical
2250,"Based on the following dialogue between Ann and Bob, which of the two scenes is more likely to be the one that Bob is describing?<br/><br/>Please select by clicking on the respective picture.<hr>",7310,40,<b>Bob</b>: The CONS block will NOT fall.,margaret,,,,Graduated High School,1632385321613,picture2,67,female,group1,trial10,independent_edge_nh,independent_edge_nn,English,stimuli/img/group1/independent_edge_nh.png,stimuli/img/group1/independent_edge_nn.png,614851453b2bdcc33847e120,if_cons,<b>Ann</b>: What happens if the CONS block falls?,,picture2,Thu Sep 23 2021 09:12:04 GMT+0100 (British Summer Time),1632384724918,9.944916666666666,image_selection,11,control-random
2250,"Based on the following dialogue between Ann and Bob, which of the two scenes is more likely to be the one that Bob is describing?<br/><br/>Please select by clicking on the respective picture.<hr>",8148,40,"<b>Bob</b>: If the ANT block falls, the CONS block will fall.",margaret,exhaustive,non-exhaustive,,Graduated High School,1632385321613,none,67,female,group2,trial4,if2_unn,if1_uu,English,stimuli/img/group2/if2_unn.png,stimuli/img/group2/if1_uu.png,614851453b2bdcc33847e120,if_ant,<b>Ann</b>: What happens if the ANT block falls?,non-exhaustive,picture2,Thu Sep 23 2021 09:12:04 GMT+0100 (British Summer Time),1632384724918,9.944916666666666,image_selection,12,critical
2250,"Based on the following dialogue between Ann and Bob, which of the two scenes is more likely to be the one that Bob is describing?<br/><br/>Please select by clicking on the respective picture.<hr>",10118,40,"<b>Bob</b>: If the ANT block falls, the CONS block will fall.",margaret,exhaustive,non-exhaustive,,Graduated High School,1632385321613,picture1,67,female,group1,trial5,if2_unn,if1_uu,English,stimuli/img/group1/if2_unn.png,stimuli/img/group1/if1_uu.png,614851453b2bdcc33847e120,cons,<b>Ann</b>: Will the CONS block fall?,non-exhaustive,picture2,Thu Sep 23 2021 09:12:04 GMT+0100 (British Summer Time),1632384724918,9.944916666666666,image_selection,13,critical
2250,"Based on the following dialogue between Ann and Bob, which of the two scenes is more likely to be the one that Bob is describing?<br/><br/>Please select by clicking on the respective picture.<hr>",9209,40,"<b>Bob</b>: If the ANT block falls, the CONS block will fall.",margaret,exhaustive,non-exhaustive,,Graduated High School,1632385321613,none,67,female,group1,trial16,if1_un,if1_uu,English,stimuli/img/group1/if1_un.png,stimuli/img/group1/if1_uu.png,614851453b2bdcc33847e120,if_ant,<b>Ann</b>: What happens if the ANT block falls?,non-exhaustive,picture2,Thu Sep 23 2021 09:12:04 GMT+0100 (British Summer Time),1632384724918,9.944916666666666,image_selection,14,critical
2250,"Based on the following dialogue between Ann and Bob, which of the two scenes is more likely to be the one that Bob is describing?<br/><br/>Please select by clicking on the respective picture.<hr>",6438,40,"<b>Bob</b>: If the ANT block falls, the CONS block will fall.",margaret,exhaustive,non-exhaustive,,Graduated High School,1632385321613,picture1,67,female,group1,trial17,if1_un,if1_uu,English,stimuli/img/group1/if1_un.png,stimuli/img/group1/if1_uu.png,614851453b2bdcc33847e120,cons,<b>Ann</b>: Will the CONS block fall?,non-exhaustive,picture2,Thu Sep 23 2021 09:12:04 GMT+0100 (British Summer Time),1632384724918,9.944916666666666,image_selection,15,critical
2250,"Based on the following dialogue between Ann and Bob, which of the two scenes is more likely to be the one that Bob is describing?<br/><br/>Please select by clicking on the respective picture.<hr>",9252,40,"<b>Bob</b>: If the ANT block falls, the CONS block will fall.",margaret,exhaustive,non-exhaustive,,Graduated High School,1632385321613,picture1,67,female,group1,trial14,if2_unn,if2_unu,English,stimuli/img/group1/if2_unn.png,stimuli/img/group1/if2_unu.png,614851453b2bdcc33847e120,cons,<b>Ann</b>: Will the CONS block fall?,exhaustive,picture1,Thu Sep 23 2021 09:12:04 GMT+0100 (British Summer Time),1632384724918,9.944916666666666,image_selection,16,critical
2250,"Based on the following dialogue between Ann and Bob, which of the two scenes is more likely to be the one that Bob is describing?<br/><br/>Please select by clicking on the respective picture.<hr>",13625,40,"<b>Bob</b>: If the ANT block falls, the CONS block will fall.",margaret,exhaustive,non-exhaustive,,Graduated High School,1632385321613,picture1,67,female,group1,trial2,if1_un,if2_unu,English,stimuli/img/group1/if1_un.png,stimuli/img/group1/if2_unu.png,614851453b2bdcc33847e120,cons,<b>Ann</b>: Will the CONS block fall?,exhaustive,picture1,Thu Sep 23 2021 09:12:04 GMT+0100 (British Summer Time),1632384724918,9.944916666666666,image_selection,17,critical
2250,"Based on the following dialogue between Ann and Bob, which of the two scenes is more likely to be the one that Bob is describing?<br/><br/>Please select by clicking on the respective picture.<hr>",5922,40,"<b>Bob</b>: If the ANT block falls, the CONS block will fall.",margaret,exhaustive,non-exhaustive,,Graduated High School,1632385321613,none,67,female,group1,trial6,if2_unn,if1_uu,English,stimuli/img/group1/if2_unn.png,stimuli/img/group1/if1_uu.png,614851453b2bdcc33847e120,neutral,<b>Ann</b>: Which blocks do you think will fall?,non-exhaustive,picture2,Thu Sep 23 2021 09:12:04 GMT+0100 (British Summer Time),1632384724918,9.944916666666666,image_selection,18,critical
2249,Use the buttons below to select all the blocks that you think will fall.<br/>(Multiple selections possible!),32679,30,NA,mary,NA,NA,,Higher Degree,1632385243929,blue|green,67,male,NA,if1_hn,NA,NA,English,NA,NA,614b44f281d2a39162884843,,NA,blue|green,NA,Thu Sep 23 2021 09:14:36 GMT+0100 (British Summer Time),1632384876311,6.126966666666666,animation_buttons,1,training
2249,Use the buttons below to select all the blocks that you think will fall.<br/>(Multiple selections possible!),10717,30,NA,mary,NA,NA,,Higher Degree,1632385243929,none,67,male,NA,if1_nn,NA,NA,English,NA,NA,614b44f281d2a39162884843,,NA,blue|green,NA,Thu Sep 23 2021 09:14:36 GMT+0100 (British Summer Time),1632384876311,6.126966666666666,animation_buttons,2,training
2249,Use the buttons below to select all the blocks that you think will fall.<br/>(Multiple selections possible!),12375,30,NA,mary,NA,NA,,Higher Degree,1632385243929,blue|green|yellow,67,male,NA,if2_hnh,NA,NA,English,NA,NA,614b44f281d2a39162884843,,NA,blue|green|yellow,NA,Thu Sep 23 2021 09:14:36 GMT+0100 (British Summer Time),1632384876311,6.126966666666666,animation_buttons,3,training
2249,Use the buttons below to select all the blocks that you think will fall.<br/>(Multiple selections possible!),6167,30,NA,mary,NA,NA,,Higher Degree,1632385243929,none,67,male,NA,if1_ln,NA,NA,English,NA,NA,614b44f281d2a39162884843,,NA,none,NA,Thu Sep 23 2021 09:14:36 GMT+0100 (British Summer Time),1632384876311,6.126966666666666,animation_buttons,4,training
2249,Use the buttons below to select all the blocks that you think will fall.<br/>(Multiple selections possible!),4927,30,NA,mary,NA,NA,,Higher Degree,1632385243929,blue,67,male,NA,independent_edge_nh,NA,NA,English,NA,NA,614b44f281d2a39162884843,,NA,blue,NA,Thu Sep 23 2021 09:14:36 GMT+0100 (British Summer Time),1632384876311,6.126966666666666,animation_buttons,5,training
2249,Use the buttons below to select all the blocks that you think will fall.<br/>(Multiple selections possible!),4895,30,NA,mary,NA,NA,,Higher Degree,1632385243929,none,67,male,NA,if2_nnl,NA,NA,English,NA,NA,614b44f281d2a39162884843,,NA,none,NA,Thu Sep 23 2021 09:14:36 GMT+0100 (British Summer Time),1632384876311,6.126966666666666,animation_buttons,6,training
2249,Use the buttons below to select all the blocks that you think will fall.<br/>(Multiple selections possible!),21758,30,NA,mary,NA,NA,,Higher Degree,1632385243929,green|yellow,67,male,NA,if2_nnh,NA,NA,English,NA,NA,614b44f281d2a39162884843,,NA,green|yellow,NA,Thu Sep 23 2021 09:14:36 GMT+0100 (British Summer Time),1632384876311,6.126966666666666,animation_buttons,7,training
2249,"EXAMPLE TRIAL<br/><br/>Based on the following dialogue between Ann and Bob, which of the two scenes is more likely to be the one that Bob is describing?<br/><br/>Please select by clicking on the respective picture.<hr>",12383,30,<b>Bob</b>: The YELLOW block will fall.,mary,,,,Higher Degree,1632385243929,picture1,67,male,example,example-test-trials,example_test_trials1,example_test_trials2,English,stimuli/img/example_test_trials1.png,stimuli/img/example_test_trials2.png,614b44f281d2a39162884843,neutral,<b>Ann</b>: Which blocks do you think will fall?,,picture1,Thu Sep 23 2021 09:14:36 GMT+0100 (British Summer Time),1632384876311,6.126966666666666,image_selection,1,test-example
2249,"Based on the following dialogue between Ann and Bob, which of the two scenes is more likely to be the one that Bob is describing?<br/><br/>Please select by clicking on the respective picture.<hr>",10543,30,<b>Bob</b>: The CONS and the ANT block will fall.,mary,,,,Higher Degree,1632385243929,picture2,67,male,group2,trial8,if1_nn,if1_hn,English,stimuli/img/group2/if1_nn.png,stimuli/img/group2/if1_hn.png,614b44f281d2a39162884843,cons,<b>Ann</b>: Will the CONS block fall?,,picture2,Thu Sep 23 2021 09:14:36 GMT+0100 (British Summer Time),1632384876311,6.126966666666666,image_selection,1,control-physics
2249,"Based on the following dialogue between Ann and Bob, which of the two scenes is more likely to be the one that Bob is describing?<br/><br/>Please select by clicking on the respective picture.<hr>",29545,30,"<b>Bob</b>: If the ANT block falls, the CONS block will fall.",mary,exhaustive,non-exhaustive,,Higher Degree,1632385243929,none,67,male,group1,trial13,if2_unn,if2_unu,English,stimuli/img/group1/if2_unn.png,stimuli/img/group1/if2_unu.png,614b44f281d2a39162884843,if_ant,<b>Ann</b>: What happens if the ANT block falls?,exhaustive,picture1,Thu Sep 23 2021 09:14:36 GMT+0100 (British Summer Time),1632384876311,6.126966666666666,image_selection,2,critical
2249,"Based on the following dialogue between Ann and Bob, which of the two scenes is more likely to be the one that Bob is describing?<br/><br/>Please select by clicking on the respective picture.<hr>",6815,30,<b>Bob</b>: NEITHER the ANT NOR the CONS block will fall.,mary,,,,Higher Degree,1632385243929,picture1,67,male,group1,trial7,if1_nn,if2_nnh,English,stimuli/img/group1/if1_nn.png,stimuli/img/group1/if2_nnh.png,614b44f281d2a39162884843,neutral,<b>Ann</b>: Which blocks do you think will fall?,,picture1,Thu Sep 23 2021 09:14:36 GMT+0100 (British Summer Time),1632384876311,6.126966666666666,image_selection,3,control-physics
2249,"Based on the following dialogue between Ann and Bob, which of the two scenes is more likely to be the one that Bob is describing?<br/><br/>Please select by clicking on the respective picture.<hr>",10295,30,"<b>Bob</b>: If the ANT block falls, the CONS block will fall.",mary,exhaustive,non-exhaustive,,Higher Degree,1632385243929,none,67,male,group1,trial3,if1_un,if2_unu,English,stimuli/img/group1/if1_un.png,stimuli/img/group1/if2_unu.png,614b44f281d2a39162884843,neutral,<b>Ann</b>: Which blocks do you think will fall?,exhaustive,picture1,Thu Sep 23 2021 09:14:36 GMT+0100 (British Summer Time),1632384876311,6.126966666666666,image_selection,4,critical
2249,"Based on the following dialogue between Ann and Bob, which of the two scenes is more likely to be the one that Bob is describing?<br/><br/>Please select by clicking on the respective picture.<hr>",7030,30,<b>Bob</b>: NEITHER the YELLOW NOR the CONS block will fall.,mary,,,,Higher Degree,1632385243929,picture1,67,male,group1,trial9,if2_nnn,if2_nnh,English,stimuli/img/group1/if2_nnn.png,stimuli/img/group1/if2_nnh.png,614b44f281d2a39162884843,if_ant_yellow,<b>Ann</b>: What happens if the YELLOW block falls?,,picture1,Thu Sep 23 2021 09:14:36 GMT+0100 (British Summer Time),1632384876311,6.126966666666666,image_selection,5,control-physics
2249,"Based on the following dialogue between Ann and Bob, which of the two scenes is more likely to be the one that Bob is describing?<br/><br/>Please select by clicking on the respective picture.<hr>",14031,30,"<b>Bob</b>: If the ANT block falls, the CONS block will fall.",mary,exhaustive,non-exhaustive,,Higher Degree,1632385243929,picture1,67,male,group1,trial2,if1_un,if2_unu,English,stimuli/img/group1/if1_un.png,stimuli/img/group1/if2_unu.png,614b44f281d2a39162884843,cons,<b>Ann</b>: Will the CONS block fall?,exhaustive,picture1,Thu Sep 23 2021 09:14:36 GMT+0100 (British Summer Time),1632384876311,6.126966666666666,image_selection,6,critical
2249,"Based on the following dialogue between Ann and Bob, which of the two scenes is more likely to be the one that Bob is describing?<br/><br/>Please select by clicking on the respective picture.<hr>",6343,30,<b>Bob</b>: NEITHER the ANT NOR the CONS block will fall.,mary,,,,Higher Degree,1632385243929,picture2,67,male,group2,trial12,if1_hn,if1_nn,English,stimuli/img/group2/if1_hn.png,stimuli/img/group2/if1_nn.png,614b44f281d2a39162884843,cons,<b>Ann</b>: Will the CONS block fall?,,picture2,Thu Sep 23 2021 09:14:36 GMT+0100 (British Summer Time),1632384876311,6.126966666666666,image_selection,7,control-random
2249,"Based on the following dialogue between Ann and Bob, which of the two scenes is more likely to be the one that Bob is describing?<br/><br/>Please select by clicking on the respective picture.<hr>",10816,30,"<b>Bob</b>: If the ANT block falls, the CONS block will fall.",mary,exhaustive,non-exhaustive,,Higher Degree,1632385243929,none,67,male,group2,trial18,if1_un,if1_uu,English,stimuli/img/group2/if1_un.png,stimuli/img/group2/if1_uu.png,614b44f281d2a39162884843,neutral,<b>Ann</b>: Which blocks do you think will fall?,exhaustive,picture1,Thu Sep 23 2021 09:14:36 GMT+0100 (British Summer Time),1632384876311,6.126966666666666,image_selection,8,critical
2249,"Based on the following dialogue between Ann and Bob, which of the two scenes is more likely to be the one that Bob is describing?<br/><br/>Please select by clicking on the respective picture.<hr>",4256,30,<b>Bob</b>: The CONS block will NOT fall.,mary,,,,Higher Degree,1632385243929,picture2,67,male,group1,trial10,independent_edge_nh,independent_edge_nn,English,stimuli/img/group1/independent_edge_nh.png,stimuli/img/group1/independent_edge_nn.png,614b44f281d2a39162884843,if_cons,<b>Ann</b>: What happens if the CONS block falls?,,picture2,Thu Sep 23 2021 09:14:36 GMT+0100 (British Summer Time),1632384876311,6.126966666666666,image_selection,9,control-random
2249,"Based on the following dialogue between Ann and Bob, which of the two scenes is more likely to be the one that Bob is describing?<br/><br/>Please select by clicking on the respective picture.<hr>",5888,30,"<b>Bob</b>: If the ANT block falls, the CONS block will fall.",mary,exhaustive,non-exhaustive,,Higher Degree,1632385243929,none,67,male,group2,trial6,if2_unn,if1_uu,English,stimuli/img/group2/if2_unn.png,stimuli/img/group2/if1_uu.png,614b44f281d2a39162884843,neutral,<b>Ann</b>: Which blocks do you think will fall?,exhaustive,picture1,Thu Sep 23 2021 09:14:36 GMT+0100 (British Summer Time),1632384876311,6.126966666666666,image_selection,10,critical
2249,"Based on the following dialogue between Ann and Bob, which of the two scenes is more likely to be the one that Bob is describing?<br/><br/>Please select by clicking on the respective picture.<hr>",5232,30,<b>Bob</b>: The CONS block will fall.,mary,,,,Higher Degree,1632385243929,picture1,67,male,group2,trial11,independent_edge_nh,independent_edge_nn,English,stimuli/img/group2/independent_edge_nh.png,stimuli/img/group2/independent_edge_nn.png,614b44f281d2a39162884843,neutral,<b>Ann</b>: Which blocks do you think will fall?,,picture1,Thu Sep 23 2021 09:14:36 GMT+0100 (British Summer Time),1632384876311,6.126966666666666,image_selection,11,control-random
2249,"Based on the following dialogue between Ann and Bob, which of the two scenes is more likely to be the one that Bob is describing?<br/><br/>Please select by clicking on the respective picture.<hr>",5583,30,"<b>Bob</b>: If the ANT block falls, the CONS block will fall.",mary,exhaustive,non-exhaustive,,Higher Degree,1632385243929,none,67,male,group2,trial4,if2_unn,if1_uu,English,stimuli/img/group2/if2_unn.png,stimuli/img/group2/if1_uu.png,614b44f281d2a39162884843,if_ant,<b>Ann</b>: What happens if the ANT block falls?,exhaustive,picture1,Thu Sep 23 2021 09:14:36 GMT+0100 (British Summer Time),1632384876311,6.126966666666666,image_selection,12,critical
2249,"Based on the following dialogue between Ann and Bob, which of the two scenes is more likely to be the one that Bob is describing?<br/><br/>Please select by clicking on the respective picture.<hr>",6304,30,"<b>Bob</b>: If the ANT block falls, the CONS block will fall.",mary,exhaustive,non-exhaustive,,Higher Degree,1632385243929,none,67,male,group1,trial16,if1_un,if1_uu,English,stimuli/img/group1/if1_un.png,stimuli/img/group1/if1_uu.png,614b44f281d2a39162884843,if_ant,<b>Ann</b>: What happens if the ANT block falls?,exhaustive,picture1,Thu Sep 23 2021 09:14:36 GMT+0100 (British Summer Time),1632384876311,6.126966666666666,image_selection,13,critical
2249,"Based on the following dialogue between Ann and Bob, which of the two scenes is more likely to be the one that Bob is describing?<br/><br/>Please select by clicking on the respective picture.<hr>",4903,30,"<b>Bob</b>: If the ANT block falls, the CONS block will fall.",mary,exhaustive,non-exhaustive,,Higher Degree,1632385243929,picture1,67,male,group1,trial17,if1_un,if1_uu,English,stimuli/img/group1/if1_un.png,stimuli/img/group1/if1_uu.png,614b44f281d2a39162884843,cons,<b>Ann</b>: Will the CONS block fall?,exhaustive,picture1,Thu Sep 23 2021 09:14:36 GMT+0100 (British Summer Time),1632384876311,6.126966666666666,image_selection,14,critical
2249,"Based on the following dialogue between Ann and Bob, which of the two scenes is more likely to be the one that Bob is describing?<br/><br/>Please select by clicking on the respective picture.<hr>",6319,30,"<b>Bob</b>: If the ANT block falls, the CONS block will fall.",mary,exhaustive,non-exhaustive,,Higher Degree,1632385243929,none,67,male,group1,trial1,if1_un,if2_unu,English,stimuli/img/group1/if1_un.png,stimuli/img/group1/if2_unu.png,614b44f281d2a39162884843,if_ant,<b>Ann</b>: What happens if the ANT block falls?,exhaustive,picture1,Thu Sep 23 2021 09:14:36 GMT+0100 (British Summer Time),1632384876311,6.126966666666666,image_selection,15,critical
2249,"Based on the following dialogue between Ann and Bob, which of the two scenes is more likely to be the one that Bob is describing?<br/><br/>Please select by clicking on the respective picture.<hr>",8871,30,"<b>Bob</b>: If the ANT block falls, the CONS block will fall.",mary,exhaustive,non-exhaustive,,Higher Degree,1632385243929,picture1,67,male,group1,trial14,if2_unn,if2_unu,English,stimuli/img/group1/if2_unn.png,stimuli/img/group1/if2_unu.png,614b44f281d2a39162884843,cons,<b>Ann</b>: Will the CONS block fall?,exhaustive,picture1,Thu Sep 23 2021 09:14:36 GMT+0100 (British Summer Time),1632384876311,6.126966666666666,image_selection,16,critical
2249,"Based on the following dialogue between Ann and Bob, which of the two scenes is more likely to be the one that Bob is describing?<br/><br/>Please select by clicking on the respective picture.<hr>",7271,30,"<b>Bob</b>: If the ANT block falls, the CONS block will fall.",mary,exhaustive,non-exhaustive,,Higher Degree,1632385243929,picture1,67,male,group1,trial5,if2_unn,if1_uu,English,stimuli/img/group1/if2_unn.png,stimuli/img/group1/if1_uu.png,614b44f281d2a39162884843,cons,<b>Ann</b>: Will the CONS block fall?,exhaustive,picture1,Thu Sep 23 2021 09:14:36 GMT+0100 (British Summer Time),1632384876311,6.126966666666666,image_selection,17,critical
2249,"Based on the following dialogue between Ann and Bob, which of the two scenes is more likely to be the one that Bob is describing?<br/><br/>Please select by clicking on the respective picture.<hr>",5281,30,"<b>Bob</b>: If the ANT block falls, the CONS block will fall.",mary,exhaustive,non-exhaustive,,Higher Degree,1632385243929,none,67,male,group2,trial15,if2_unn,if2_unu,English,stimuli/img/group2/if2_unn.png,stimuli/img/group2/if2_unu.png,614b44f281d2a39162884843,neutral,<b>Ann</b>: Which blocks do you think will fall?,exhaustive,picture1,Thu Sep 23 2021 09:14:36 GMT+0100 (British Summer Time),1632384876311,6.126966666666666,image_selection,18,critical
2248,Use the buttons below to select all the blocks that you think will fall.<br/>(Multiple selections possible!),17861,30,NA,Jessica,NA,NA,,Graduated College,1632385229290,blue|green,67,female,NA,if1_hn,NA,NA,"Urdu, English",NA,NA,6127be69f7b47a6f72a21797,,NA,blue|green,NA,Thu Sep 23 2021 09:15:07 GMT+0100 (British Summer Time),1632384907490,5.363333333333333,animation_buttons,1,training
2248,Use the buttons below to select all the blocks that you think will fall.<br/>(Multiple selections possible!),12666,30,NA,Jessica,NA,NA,,Graduated College,1632385229290,none,67,female,NA,if2_nnl,NA,NA,"Urdu, English",NA,NA,6127be69f7b47a6f72a21797,,NA,green|yellow,NA,Thu Sep 23 2021 09:15:07 GMT+0100 (British Summer Time),1632384907490,5.363333333333333,animation_buttons,2,training
2248,Use the buttons below to select all the blocks that you think will fall.<br/>(Multiple selections possible!),17287,30,NA,Jessica,NA,NA,,Graduated College,1632385229290,blue|green|yellow,67,female,NA,if2_hnh,NA,NA,"Urdu, English",NA,NA,6127be69f7b47a6f72a21797,,NA,blue|green|yellow,NA,Thu Sep 23 2021 09:15:07 GMT+0100 (British Summer Time),1632384907490,5.363333333333333,animation_buttons,3,training
2248,Use the buttons below to select all the blocks that you think will fall.<br/>(Multiple selections possible!),5771,30,NA,Jessica,NA,NA,,Graduated College,1632385229290,none,67,female,NA,if1_nn,NA,NA,"Urdu, English",NA,NA,6127be69f7b47a6f72a21797,,NA,none,NA,Thu Sep 23 2021 09:15:07 GMT+0100 (British Summer Time),1632384907490,5.363333333333333,animation_buttons,4,training
2248,Use the buttons below to select all the blocks that you think will fall.<br/>(Multiple selections possible!),11946,30,NA,Jessica,NA,NA,,Graduated College,1632385229290,blue|yellow,67,female,NA,if2_nnh,NA,NA,"Urdu, English",NA,NA,6127be69f7b47a6f72a21797,,NA,blue|yellow,NA,Thu Sep 23 2021 09:15:07 GMT+0100 (British Summer Time),1632384907490,5.363333333333333,animation_buttons,5,training
2248,Use the buttons below to select all the blocks that you think will fall.<br/>(Multiple selections possible!),5513,30,NA,Jessica,NA,NA,,Graduated College,1632385229290,none,67,female,NA,if1_ln,NA,NA,"Urdu, English",NA,NA,6127be69f7b47a6f72a21797,,NA,none,NA,Thu Sep 23 2021 09:15:07 GMT+0100 (British Summer Time),1632384907490,5.363333333333333,animation_buttons,6,training
2248,Use the buttons below to select all the blocks that you think will fall.<br/>(Multiple selections possible!),5464,30,NA,Jessica,NA,NA,,Graduated College,1632385229290,green,67,female,NA,independent_edge_nh,NA,NA,"Urdu, English",NA,NA,6127be69f7b47a6f72a21797,,NA,green,NA,Thu Sep 23 2021 09:15:07 GMT+0100 (British Summer Time),1632384907490,5.363333333333333,animation_buttons,7,training
2248,"EXAMPLE TRIAL<br/><br/>Based on the following dialogue between Ann and Bob, which of the two scenes is more likely to be the one that Bob is describing?<br/><br/>Please select by clicking on the respective picture.<hr>",8308,30,<b>Bob</b>: The YELLOW block will fall.,Jessica,,,,Graduated College,1632385229290,picture1,67,female,example,example-test-trials,example_test_trials1,example_test_trials2,"Urdu, English",stimuli/img/example_test_trials1.png,stimuli/img/example_test_trials2.png,6127be69f7b47a6f72a21797,neutral,<b>Ann</b>: Which blocks do you think will fall?,,picture1,Thu Sep 23 2021 09:15:07 GMT+0100 (British Summer Time),1632384907490,5.363333333333333,image_selection,1,test-example
2248,"Based on the following dialogue between Ann and Bob, which of the two scenes is more likely to be the one that Bob is describing?<br/><br/>Please select by clicking on the respective picture.<hr>",11607,30,<b>Bob</b>: NEITHER the ANT NOR the CONS block will fall.,Jessica,,,,Graduated College,1632385229290,picture1,67,female,group2,trial7,if1_nn,if2_nnh,"Urdu, English",stimuli/img/group2/if1_nn.png,stimuli/img/group2/if2_nnh.png,6127be69f7b47a6f72a21797,neutral,<b>Ann</b>: Which blocks do you think will fall?,,picture1,Thu Sep 23 2021 09:15:07 GMT+0100 (British Summer Time),1632384907490,5.363333333333333,image_selection,1,control-physics
2248,"Based on the following dialogue between Ann and Bob, which of the two scenes is more likely to be the one that Bob is describing?<br/><br/>Please select by clicking on the respective picture.<hr>",25263,30,"<b>Bob</b>: If the ANT block falls, the CONS block will fall.",Jessica,exhaustive,non-exhaustive,,Graduated College,1632385229290,picture1,67,female,group1,trial14,if2_unn,if2_unu,"Urdu, English",stimuli/img/group1/if2_unn.png,stimuli/img/group1/if2_unu.png,6127be69f7b47a6f72a21797,cons,<b>Ann</b>: Will the CONS block fall?,non-exhaustive,picture2,Thu Sep 23 2021 09:15:07 GMT+0100 (British Summer Time),1632384907490,5.363333333333333,image_selection,2,critical
